Time,Roll,Pitch,Yaw,AccelX,AccelY,AccelZ,Letter,Name
1526529939.81014,0.122907485701491,1.47392135843645,1.14042173625784,0.0359629094600677,-0.0324139297008514,-0.0313712432980537,V
1526529939.81151,0.122799283199612,1.47553459848984,1.14135139945492,0.0361699908971786,-0.0322591885924339,-0.0329636707901955,V
1526529939.82557,0.122273439755241,1.47673377931375,1.14267214827398,0.0286900717765093,-0.0441545061767101,0.0158911142498255,V
1526529939.84255,0.122911473307957,1.47714006875427,1.1434468720074,0.0734952539205551,-0.067538671195507,0.0755256712436676,V
1526529939.84347,0.118383019642796,1.47649615431471,1.14946452418448,0.0738399550318718,-0.0675990954041481,0.0762132257223129,V
1526529939.85734,0.213991750303288,1.47820201421644,1.0555287846495,0.0735652297735214,-0.0499075688421726,0.0358029194176197,V
1526529939.87448,0.192474711202908,1.47624017986794,1.07829953903986,0.075140118598938,-0.0500908829271793,0.0381216518580914,V
1526529939.87538,0.168944831319681,1.47411422777017,1.10296919171809,0.0769696459174156,-0.050293855369091,0.0406070314347744,V
1526529939.88906,0.145434599478149,1.47276932759742,1.12723693255395,0.0283426735550165,-0.0475711859762669,-0.0524398684501648,V
1526529939.90507,0.12719967763181,1.47258816971161,1.14594520636396,-0.0249658357352018,-0.0534330494701862,-0.100648276507854,V
1526529939.90598,0.115741967873995,1.47355770396673,1.1576412002045,-0.023739255964756,-0.0533384531736374,-0.101470597088337,V
1526529939.92097,0.10698456856085,1.47533145673139,1.16627591795198,-0.00599741144105792,-0.0681061670184135,-0.0429508797824383,V
1526529939.93653,0.0971712074788665,1.47735717422347,1.17573632265385,-0.0192602574825287,-0.0693952217698097,-0.00563238840550184,V
1526529939.93728,0.0864360157945127,1.47953223620965,1.18603577901959,-0.0180758833885193,-0.0691946372389793,-0.00769827235490084,V
1526529939.95374,0.0782818901129141,1.48155474697052,1.19385260993645,-0.0171777363866568,-0.0690123438835144,-0.00964524690061808,V
1526529939.96897,0.0728559788877991,1.48354906654668,1.19901343162783,-0.0434979610145092,-0.0507396645843983,-0.0064935926347971,V
1526529939.96953,0.070461035886219,1.48589682807489,1.20100684379744,-0.0431251302361488,-0.0505378320813179,-0.00881191622465849,V
1526529939.98506,0.0713592708078875,1.48814537238591,1.19929318593569,-0.0441857613623142,-0.0534777343273163,-0.001973289065063,V
1526529940.00183,0.0723613378211553,1.49028128829206,1.19732296630607,-0.0159313827753067,-0.0292863380163908,0.0194265842437744,V
1526529940.00253,0.0729690746208669,1.49224004019583,1.19599351363748,-0.0158377829939127,-0.0291307121515274,0.0174756720662117,V
1526529940.01691,0.073915624843478,1.49411166518365,1.19472862854264,-0.00445204181596637,-0.00185545405838639,-0.0151829095557332,V
1526529940.03431,0.0758524909982156,1.49620998814208,1.19291060028302,-0.00444145267829299,-0.00169689767062664,-0.0172803178429604,V
1526529940.03599,0.0778733565908951,1.49837596377592,1.19084156352169,-0.00442355079576373,-0.00153783452697098,-0.0194454621523619,V
1526529940.04803,0.0818501620960595,1.50070010751858,1.1867148624728,-0.0087933074682951,0.00717256171628833,-0.0261886920779943,V
1526529940.06402,0.0863940983914301,1.50306546395427,1.18213519485514,0.00030948908533901,0.0194509159773588,-0.0206470601260662,V
1526529940.0676,0.0925076431038464,1.5054359238214,1.17618804978665,0.000115873146569356,0.0196085441857576,-0.0230391211807728,V
1526529940.07985,0.0988325553849517,1.50748803149308,1.17010315918335,0.0209180768579245,0.0238298289477825,0.0162348672747612,V
1526529940.09627,0.0990087219005156,1.50910779250212,1.17025304418997,0.025781748816371,0.0352072417736053,0.00412703771144152,V
1526529940.09706,0.0938472630349111,1.51036924611347,1.1757466245331,0.0262164603918791,0.0352842137217522,0.00290411128662527,V
1526529940.11212,0.0836707704621976,1.51137738050016,1.18650209272586,0.0269127022475004,0.0353445895016193,0.00195578276179731,V
1526529940.12746,0.0740135616581147,1.51235103233366,1.19685864268754,0.0116413570940495,0.0350052081048489,-0.012289272621274,V
1526529940.12838,0.0618462108154058,1.51347376964703,1.20953533396148,0.0124197099357843,0.0350701585412025,-0.0133597450330853,V
1526529940.1434,0.0470430429315224,1.5091333174687,1.22465009519392,-0.00164668774232268,0.0344153568148613,-0.0370465293526649,V
1526529940.15907,0.0429691573602011,1.51131424826887,1.22905223987042,-0.003591199638322,0.0386672541499138,-0.0242412853986025,V
1526529940.15983,0.0389162947622907,1.51373538894605,1.23346261041982,-0.00325643294490874,0.0388082563877106,-0.0266466252505779,V
1526529940.17596,0.0353696365717893,1.51617908806583,1.23739724123761,-0.00296802679076791,0.0389446392655373,-0.0290774777531624,V
1526529940.19102,0.036440500776631,1.51876492633279,1.23664285723163,-0.0063198241405189,0.0393571220338345,-0.0127696422860026,V
1526529940.19177,0.0407176804665123,1.5212534030761,1.23253881096348,-0.00644093938171864,0.0394834503531456,-0.0152614302933216,V
1526529940.2073,0.0432128476090154,1.52303722770675,1.2300335966491,0.00730651617050171,0.0259135831147432,0.0421574376523495,V
1526529940.22273,0.0371802845006005,1.52395844128829,1.23602769214228,0.035506296902895,0.033586535602808,0.063237376511097,V
1526529940.22349,0.0244931995006124,1.52406414195373,1.24893269546102,0.0361026152968407,0.0335914790630341,0.0631501376628876,V
1526529940.23921,0.024726795716806,1.52506305282165,1.24912764188795,0.0061481143347919,0.0362621545791626,0.0107302134856582,V
1526529940.25494,0.00433398570216152,1.52485590714536,1.26999678494806,0.00707940803840756,0.0362526625394821,0.0109506854787469,V
1526529940.25572,-0.0152755970505999,1.52492769611794,1.29014970468126,0.00797883979976177,0.0362559594213963,0.0108740543946624,V
1526529940.27127,-0.0307278150012384,1.52520743572776,1.30601164421013,-0.00462708016857505,0.0355973578989506,-0.0128132803365588,V
1526529940.28632,-0.0474357866447928,1.52558478652207,1.32314843503178,-0.00689009251073003,0.0407109223306179,-0.00511715142056346,V
1526529940.28721,-0.0636175593909521,1.52609989858272,1.3399806216349,-0.00619258917868137,0.0407340675592422,-0.00567129068076611,V
1526529940.30225,-0.080123164207409,1.52693829521931,1.35727413607069,-0.00923192873597145,0.045425109565258,-0.00828337948769331,V
1526529940.31877,-0.0988250037426748,1.52783907484359,1.37650239361015,0.00458799256011844,0.0352560691535473,0.019022349268198,V
1526529940.3198,-0.118220227284714,1.52872614948804,1.39615557274977,0.00531145744025707,0.0352937690913677,0.01805205270648,V
1526529940.33568,-0.138322251347915,1.52924731856722,1.41635880846079,0.00607814732939005,0.0353155545890331,0.0174281653016806,V
1526529940.34998,-0.156752808634458,1.5291247455256,1.43492012229634,-0.00686316238716245,0.0265824273228645,0.0526996552944183,V
1526529940.35118,-0.169012238911329,1.52853131385668,1.44723984175524,-0.00625947071239352,0.0265575293451548,0.0532012954354286,V
1526529940.36779,-0.262737743514263,1.53079596269186,1.54096044853555,-0.01781190559268,0.0404903739690781,0.0290348343551159,V
1526529940.38194,-0.269310632356571,1.52977652341441,1.54782215281364,-0.00640777079388499,0.046079583466053,0.000315050041535869,V
1526529940.38281,-0.277288371696393,1.52865299979813,1.55632059008262,-0.00578546291217208,0.0460328795015812,0.00130642065778375,V
1526529940.39743,-0.286069936252909,1.5276935338087,1.56552014622067,-0.0111104976385832,0.0758381858468056,-0.0176826920360327,V
1526529940.4137,-0.297128930846631,1.52682000013513,1.57680663893024,-0.0103985825553536,0.0758001655340195,-0.0169852189719677,V
1526529940.41525,-0.313415592929884,1.52583904960395,1.59278264685246,-0.00941355992108583,0.0757565572857857,-0.0162681695073843,V
1526529940.42985,-0.339498141061075,1.52502084812484,1.61794132418495,-0.0256550069898367,0.122167207300663,-0.0283245388418436,V
1526529940.4453,-0.374333021103414,1.52426461614486,1.65132235178844,-0.0647635832428932,0.202118888497353,-0.0649214908480644,V
1526529940.44612,-0.416469446460585,1.52365054629547,1.69140941808823,-0.0627068355679512,0.20209014415741,-0.0651154071092606,V
1526529940.46149,-0.461611144766679,1.52299530478232,1.73376986947762,-0.153919368982315,0.342043161392212,-0.0322000086307526,V
1526529940.47687,-0.503904025829432,1.52185474415113,1.77247787382158,-0.197065949440002,0.437126576900482,0.00849370751529932,V
1526529940.47769,-0.540001974817957,1.52013683246619,1.80408948911091,-0.194653049111366,0.437041044235229,0.0090849194675684,V
1526529940.49268,-0.56297121814098,1.51764346420061,1.82236203560455,-0.192333474755287,0.436911702156067,0.010581249371171,V
1526529940.50888,-0.571274870691777,1.51423640141358,1.82580059472222,-0.195645615458488,0.497042894363403,0.0575480498373508,V
1526529940.50991,-0.565425193362987,1.51008368206106,1.81532835103292,-0.193703219294548,0.496799528598785,0.0612264014780521,V
1526529940.5244,-0.547837332823477,1.5049841151734,1.79390898079095,-0.155078008770943,0.516984939575195,0.0909455418586731,V
1526529940.54105,-0.520254024528332,1.49865017153081,1.76326311957723,-0.136698335409164,0.495949000120163,0.0833594053983688,V
1526529940.54199,-0.486812973763461,1.49105839267802,1.72667681124817,-0.135268315672874,0.495373040437698,0.0912129729986191,V
1526529940.55637,-0.457776702598749,1.48269827538321,1.6937121665984,-0.120554074645042,0.442304134368896,-0.0123682813718915,V
1526529940.57264,-0.436383008245475,1.47396510592867,1.66708474178405,-0.118575923144817,0.441497772932053,-0.0036735946778208,V
1526529940.57349,-0.423774167028798,1.46557936611495,1.6478928896039,-0.116253271698952,0.440652042627335,0.00443963473662734,V
1526529940.58806,-0.417482593090521,1.45786119084561,1.63408845912721,-0.131049081683159,0.368644863367081,-0.0602834448218346,V
1526529940.60369,-0.412500946670131,1.44985996708282,1.62087314273361,-0.0887652337551117,0.276280701160431,0.0337707661092281,V
1526529940.6048,-0.40813628420617,1.44119603840775,1.60816818502058,-0.085836336016655,0.275198221206665,0.0418707653880119,V
1526529940.61997,-0.398579277639809,1.43172280712755,1.59031616554588,-0.0853429883718491,0.175006717443466,0.0636723190546036,V
1526529940.63615,-0.384507547878584,1.42160810753234,1.56763050869491,-0.0121022900566459,0.069946750998497,-0.0677991211414337,V
1526529940.63682,-0.371143601293956,1.41145174586299,1.54538333309768,-0.0103087686002254,0.0683861821889877,-0.0577139519155025,V
1526529940.65154,-0.363116151871311,1.40141969997056,1.52714083725083,-0.00798237510025501,0.0667447298765182,-0.048005286604166,V
1526529940.66889,-0.362435167394969,1.39108584148939,1.51448303300436,0.0984543040394783,-0.072226345539093,-0.105007708072662,V
1526529940.66944,-0.3687870217362,1.38062032043177,1.50849503496495,0.103222921490669,-0.0741508454084396,-0.0958182662725449,V
1526529940.68415,-0.375387647079942,1.36998085707491,1.50391875701227,0.127056330442429,-0.195541307330132,-0.0844104066491127,V
1526529940.70142,-0.377403690066717,1.35910768865025,1.49765248655726,0.0375564470887184,-0.349837154150009,5.77479368075728e-05,V
1526529940.7023,-0.369539573046531,1.34770583440547,1.4843983531118,0.0400392562150955,-0.35229629278183,0.0110424626618624,V
1526529940.71574,-0.350451005413439,1.33497270716354,1.46167203609581,0.04034373909235,-0.355192422866821,0.0241758152842522,V
1526529940.73112,-0.322227806205349,1.32031982904391,1.43091650853592,0.0271331202238798,-0.495026975870132,0.118165172636509,V
1526529940.73557,-0.289766719897652,1.30468151378025,1.39615833436298,0.0237812735140324,-0.499021500349045,0.135077938437462,V
1526529940.74713,-0.256231768104475,1.28922022812931,1.36038636565108,0.0470918975770473,-0.551313698291779,-0.0574043095111847,V
1526529940.76286,-0.223510114211655,1.27483725987539,1.32584024203376,0.115336656570435,-0.570225775241852,-0.208776816725731,V
1526529940.76385,-0.193533676678739,1.26175226483662,1.29502811039266,0.109185837209225,-0.574123919010162,-0.194709420204163,V
1526529940.77873,-0.167118301279642,1.25017040635683,1.26876738255047,0.18665586411953,-0.563946902751923,-0.243398815393448,V
1526529940.79537,-0.145267193700417,1.24045050049576,1.24772624915072,0.181186363101006,-0.567054986953735,-0.233215034008026,V
1526529940.79617,-0.127896845456307,1.23302123434592,1.23099454602936,0.176499679684639,-0.569490909576416,-0.225486651062965,V
1526529940.81056,-0.115000630945492,1.22864470164989,1.2179858926706,0.149064600467682,-0.542111158370972,-0.304122060537338,V
1526529940.82651,-0.105961125171802,1.2269870224778,1.20773514397608,0.152944460511208,-0.493398010730743,-0.265934616327286,V
1526529940.82729,-0.101017961022976,1.22718284787956,1.2008275152413,0.151268556714058,-0.493332028388977,-0.265945941209793,V
1526529940.84235,-0.0985763330022291,1.22827761672313,1.1964979877516,0.118411973118782,-0.415693253278732,-0.121641531586647,V
1526529940.8579,-0.0963832986793823,1.23011499997038,1.19320551356018,0.032017320394516,-0.321556627750397,-0.102724179625511,V
1526529940.85867,-0.0942986294133375,1.23274471501626,1.19048280953748,0.0310904458165169,-0.320681214332581,-0.105126589536667,V
1526529940.87461,-0.0936870688031148,1.23652934804124,1.18943228586032,0.0305542815476656,-0.319432824850082,-0.108664683997631,V
1526529940.88993,-0.0957459332706899,1.24136678780946,1.19094468782848,0.0674105882644653,-0.241852790117264,-0.0964049100875854,V
1526529940.8907,-0.100767058933128,1.24680092984502,1.19538401999437,0.0685093626379967,-0.240108802914619,-0.101684831082821,V
1526529940.90652,-0.106824277367518,1.25270155995488,1.20101576006461,-0.00965268258005381,-0.169093981385231,-0.0380701310932636,V
1526529940.92171,-0.112041404626371,1.2591564794393,1.20627898823308,-0.0830730497837067,-0.121669545769691,0.0235084127634764,V
1526529940.92249,-0.116216456463084,1.26555688354174,1.21098823881452,-0.0825083628296852,-0.119726568460464,0.0173054151237011,V
1526529940.93775,-0.119935648992941,1.27143663194844,1.2157506831215,-0.0895773693919182,-0.133478999137878,0.11858031898737,V
1526529940.95381,-0.122420111632166,1.27653212355592,1.21978278608214,-0.0894450843334198,-0.131988704204559,0.113655537366867,V
1526529940.95478,-0.124002569749196,1.28121899551441,1.22309170330464,-0.0895447582006454,-0.130639865994453,0.109145015478134,V
1526529940.96943,-0.126215984856257,1.28572123153621,1.22684870938263,-0.143950313329697,-0.17921444773674,0.0888984352350235,V
1526529940.98527,-0.129430719502263,1.28995650755003,1.2312329976259,-0.188744530081749,-0.306816160678864,0.111651599407196,V
1526529940.98629,-0.137180912389753,1.29453125514846,1.23876820957302,-0.187217026948929,-0.305558264255524,0.107009008526802,V
1526529941.00216,-0.152640072666225,1.30066787365545,1.25195013346448,-0.201765269041061,-0.514656901359558,-0.0333055704832077,V
1526529941.01788,-0.175540173098187,1.30865269776775,1.2700048117144,-0.431029617786407,-0.699705958366394,-0.0444831103086472,V
1526529941.01871,-0.202230263908213,1.31852712488542,1.28968059152636,-0.426154136657715,-0.69719409942627,-0.0551367476582527,V
1526529941.03513,-0.229000563007263,1.33035868289675,1.30780525689877,-0.422231823205948,-0.694308757781982,-0.0677410140633583,V
1526529941.04916,-0.253533894589999,1.34412198669811,1.32265234032055,-0.546168804168701,-0.856940686702728,-0.0608428344130516,V
1526529941.05,-0.272863551966648,1.35905071667535,1.33213902344015,-0.54590117931366,-0.853694319725037,-0.0760052725672722,V
1526529941.06469,-0.280484341806411,1.37481907010937,1.33021461779132,-0.594563961029053,-0.896049499511719,-0.0523405708372593,V
1526529941.08054,-0.274747588255368,1.39215661080587,1.31514449557998,-0.493066728115082,-0.794584929943085,-0.249383583664894,V
1526529941.08171,-0.25510784414859,1.41175056285409,1.28593603595599,-0.501308858394623,-0.791292428970337,-0.267159730195999,V
1526529941.09615,-0.217047220402776,1.43375183035834,1.23748575000937,-0.205687582492828,-0.535224318504333,-0.269390940666199,V
1526529941.11246,-0.156889753122998,1.45701639159976,1.16669913746541,-0.217367991805077,-0.532314360141754,-0.290661334991455,V
1526529941.11342,-0.0644338954281938,1.47972787440147,1.06354138840731,-0.229251682758331,-0.529992282390594,-0.312047600746155,V
1526529941.12867,0.0856889741893443,1.5002582216566,0.902902117342604,0.0550489947199821,-0.176299646496773,-0.125335603952408,V
1526529941.14416,0.326144997626351,1.51630689045851,0.653291274896121,0.321631371974945,0.188914984464645,0.0602431930601597,V
1526529941.14507,0.654153912181829,1.52539741146016,0.318190505348117,0.311465591192245,0.189368814229965,0.0446662604808807,V
1526529941.16162,0.988455612212779,1.52720172969269,-0.0214266112986543,0.430338144302368,0.514888525009155,0.182080149650574,V
1526529941.17569,1.22743725803822,1.52440389453073,-0.265029148544074,0.424547135829926,0.803413212299347,0.122652910649776,V
1526529941.17652,1.35647208223076,1.51981237646263,-0.399472416250946,0.418420076370239,0.803189754486084,0.117879338562489,V
1526529941.19155,1.4173740322418,1.51493350529883,-0.466582452809203,0.413038015365601,0.802929222583771,0.115572981536388,V
1526529941.20774,1.45228496632084,1.50983614025936,-0.508154464084901,0.360464364290237,0.943134546279907,-0.176466926932335,V
1526529941.20873,1.48916957735325,1.50565786919536,-0.551360086979554,0.356083810329437,0.942871332168579,-0.178362667560577,V
1526529941.22343,1.52678222008754,1.50374409666547,-0.593625745709531,0.534594893455505,0.951320350170135,-0.266628950834274,V
1526529941.23932,1.55991688735269,1.50388294693208,-0.628825202308925,0.415425032377243,0.883321225643158,-0.248448595404625,V
1526529941.24015,1.59118649838911,1.50560972800325,-0.659365947687588,0.417157649993896,0.883435189723969,-0.250504165887833,V
1526529941.25541,1.62074266526902,1.50832733756655,-0.686797326482904,0.313290357589722,0.774660766124725,-0.264637172222137,V
1526529941.27216,1.65588970802885,1.51223696717055,-0.720622522551015,0.317326724529266,0.774897217750549,-0.266494542360306,V
1526529941.27308,1.70797850591588,1.51713341464911,-0.773315656724586,0.322507619857788,0.77517181634903,-0.268855392932892,V
1526529941.28699,1.77728372507988,1.52197424391948,-0.844388709145239,0.175378546118736,0.61681991815567,-0.23466083407402,V
1526529941.30279,1.84672412388911,1.52606973906589,-0.915504854150289,-0.02220737375319,0.436408370733261,-0.0749864131212234,V
1526529941.30336,1.88972216880322,1.52915573974928,-0.959033665184416,-0.0187163539230824,0.436541616916656,-0.0758576765656471,V
1526529941.31884,1.90053796583519,1.53163731553605,-0.968729931548682,-0.0783912092447281,0.281841427087784,-0.0323144532740116,V
1526529941.33587,1.88392220077655,1.53345954976581,-0.949512474569086,-0.0768643543124199,0.281911104917526,-0.0311363860964775,V
1526529941.33651,1.84922752532401,1.53461857099977,-0.911489533835158,-0.0761281996965408,0.281953692436218,-0.0295792613178492,V
1526529941.351,1.81018795170736,1.53532681458453,-0.869029536288314,-0.0902216583490372,0.15874907374382,-0.0430001467466354,V
1526529941.36918,1.76486824936922,1.53568715792967,-0.820584683594623,-0.0956307351589203,0.0702608153223991,-0.0222725514322519,V
1526529941.36975,1.71672963187237,1.53564974737881,-0.76970160336529,-0.0959535762667656,0.0702594965696335,-0.0206127483397722,V
1526529941.38299,1.66148069333099,1.53502869579433,-0.712498372936277,-0.146910667419434,0.0127271059900522,0.0169336888939142,V
1526529941.39837,1.59510528789938,1.53352275409063,-0.645270724979767,-0.127860620617867,-0.00785095151513815,0.0647222697734833,V
1526529941.40155,1.52938642090078,1.53110739985768,-0.57944479951003,-0.130251184105873,-0.00794387422502041,0.0672706663608551,V
1526529941.41444,1.45829761034532,1.52854554964898,-0.508373835895768,-0.132577896118164,-0.00804880354553461,0.0703697800636292,V
1526529941.43006,1.39369556361554,1.52584478393115,-0.443365510101203,-0.053510881960392,-0.0347778499126434,0.066174790263176,V
1526529941.43081,1.35067021894835,1.5231209215865,-0.399028293921938,-0.0557847134768963,-0.034903958439827,0.068664163351059,V
1526529941.44581,1.34275803762547,1.52054111474242,-0.389067518694829,-0.0553422793745995,-0.0304678492248058,-0.0664025247097015,V
1526529941.46185,1.38598817576639,1.51884464204174,-0.43041748598048,0.0469936616718769,-0.0562503077089787,-0.266733407974243,V
1526529941.46273,1.50007174279257,1.51832187993283,-0.545259121118953,0.0457184761762619,-0.0562775917351246,-0.272569209337234,V
1526529941.47777,1.66984599179741,1.517202479077,-0.719350679578489,0.0459527857601643,-0.0874953791499138,-0.159884035587311,V
0,0,0,0,0,0,0,0,0
1526529942.16067,-1.57243066989008,1.55437404058513,2.80534133885775,-0.0283935368061066,0.00810490362346172,-0.0873834043741226,V
1526529942.1616,-1.77689879186804,1.55560562215545,3.01295536176401,-0.0299464277923107,0.00812436919659376,-0.090465173125267,V
1526529942.17657,-1.70489483748935,1.55550035527349,2.93869974799254,0.10170590877533,-0.0448557510972023,0.390319555997849,V
1526529942.19325,-1.3555747080226,1.55324273161278,2.58718452200855,0.103695586323738,-0.0448928289115429,0.396113127470016,V
1526529942.19457,-1.10004179608193,1.54890277689201,2.32967277719461,0.106058403849602,-0.0449784249067307,0.402293711900711,V
1526529942.20849,-0.956588779468155,1.54502215469991,2.18544727579346,-0.0703237801790237,0.0625340789556503,-0.0486853010952473,V
1526529942.22464,-0.867347997779858,1.54230383294643,2.09609017423948,-0.105379819869995,0.0577453598380089,-0.118229798972607,V
1526529942.22542,-0.811072420568573,1.54073984780737,2.0395441472749,-0.105317257344723,0.0576995834708214,-0.115960292518139,V
1526529942.24014,-0.766615565625384,1.53975244816968,1.99482860136426,-0.0491775013506413,0.0351627096533775,-0.0171335935592651,V
1526529942.25559,-0.719108699768779,1.5386906902502,1.94715119664789,-0.0433998666703701,0.042117714881897,-0.0710324123501778,V
1526529942.25635,-0.686665237649752,1.53805564138742,1.91456370962009,-0.0437920428812504,0.0420971289277077,-0.0698683708906174,V
1526529942.27251,-0.668981158141961,1.53804670963498,1.89645529596939,-0.044237419962883,0.0420968346297741,-0.0694983527064323,V
1526529942.28782,-0.664773445857152,1.53832089953092,1.89152532808532,-0.008030965924263,0.0319739393889904,-0.0513487905263901,V
1526529942.28858,-0.66671325579593,1.53852360881113,1.89266185608955,-0.00810672156512737,0.0319805033504963,-0.0515469126403332,V
1526529942.30474,-0.665983818626762,1.53812880094263,1.89108668404847,0.0332715287804604,0.0112309902906418,0.0262315291911364,V
1526529942.31938,-0.663747432430384,1.53739908578253,1.88808880868895,0.0190606936812401,0.0166390184313059,-0.01909314468503,V
1526529942.32015,-0.664843085599104,1.53667068301904,1.88835365609897,0.0195386204868555,0.016614431515336,-0.0185427647083998,V
1526529942.33631,-0.675191029314209,1.53618724476226,1.89802571689484,0.0195680297911167,0.0152550470083952,-0.0571727119386196,V
1526529942.35149,-0.691397106995706,1.53582789309917,1.91380629324888,0.0202318858355284,0.0152425486594439,-0.0572500862181187,V
1526529942.35229,-0.708334578514664,1.53590788281282,1.93073791852402,0.0206328295171261,0.0152453416958451,-0.0576922111213207,V
1526529942.36888,-0.718201905893938,1.53606825984297,1.94083940229573,-0.00409944262355566,0.0248639602214098,-0.0394681580364704,V
1526529942.38313,-0.717743569745786,1.53606051774387,1.94054247905037,-0.00804310664534569,0.0465922057628632,-0.0217211470007896,V
1526529942.38417,-0.714090173051508,1.53585327749283,1.93704399918154,-0.00800319015979767,0.046584989875555,-0.0214813612401485,V
1526529942.40114,-0.711904862726118,1.53559037180726,1.93509733978891,-0.010284923017025,0.0870115607976913,-0.0554884746670723,V
1526529942.4159,-0.714005561877788,1.5352803284312,1.93732973693066,-0.0419779866933823,0.144129499793053,-0.0829821154475212,V
1526529942.41719,-0.722360876399224,1.53489807157717,1.94566592713375,-0.0415020100772381,0.14411586523056,-0.0828907340764999,V
1526529942.43065,-0.7428003738601,1.53463641782495,1.96578978069114,-0.0407797805964947,0.144106432795525,-0.0831887349486351,V
1526529942.4468,-0.771228570460513,1.53421705349243,1.9934843040912,-0.0818091258406639,0.247911989688873,-0.0755678862333298,V
1526529942.44766,-0.804962247202895,1.53373732080864,2.02619916913689,-0.0805936232209206,0.247894331812859,-0.0761102363467216,V
1526529942.46243,-0.833264319547638,1.53301762530643,2.05350067829663,-0.131118357181549,0.364841282367706,-0.0457682423293591,V
1526529942.4785,-0.844732297450602,1.53190344608958,2.0642188044711,-0.140936926007271,0.439673453569412,0.021390650421381,V
1526529942.47941,-0.835819244486996,1.53035388484292,2.05521958913548,-0.140019536018372,0.439612001180649,0.0226870533078909,V
1526529942.49432,-0.798545571364395,1.52811043009585,2.01864629890419,-0.139445006847382,0.43951877951622,0.0253499615937471,V
1526529942.51028,-0.734933050504924,1.52489315397385,1.95640974244472,-0.0862811803817749,0.506270825862885,0.0990601852536201,V
1526529942.51127,-0.66612056803231,1.52047515973786,1.8890693168941,-0.0859678015112877,0.506058394908905,0.104564756155014,V
1526529942.52611,-0.611083219438786,1.51414746380498,1.83483660302809,0.0362235903739929,0.548551499843597,0.106140814721584,V
1526529942.54248,-0.579594793565327,1.50601199399432,1.80329492493341,0.0574597641825676,0.547813713550568,0.0700505450367928,V
1526529942.54329,-0.567642861836225,1.49652578745774,1.79037256842241,0.061897736042738,0.547154724597931,0.0784495770931244,V
1526529942.55812,-0.566037846517512,1.48608094275516,1.78660430701933,-0.0661333650350571,0.489532083272934,0.0740568116307259,V
1526529942.57419,-0.562120812898772,1.47548127939245,1.77955249779292,-0.0607869252562523,0.488579243421555,0.083166316151619,V
1526529942.57506,-0.547346172589848,1.46455362764451,1.76079055162706,-0.0563240498304367,0.487479835748672,0.0931907519698143,V
1526529942.58998,-0.524154076641115,1.45253131914937,1.73355164123277,-0.13578799366951,0.389117747545242,0.172858372330666,V
1526529942.60565,-0.495450665965283,1.43878804197388,1.70141824929249,-0.0527475886046886,0.246899530291557,0.188582301139832,V
1526529942.60625,-0.468445661137538,1.42285818266873,1.67179246807179,-0.0487752370536327,0.244677066802979,0.204304397106171,V
1526529942.62111,-0.449911743640025,1.40575866752745,1.65071237334769,-0.04049127176404,0.119743466377258,0.0408388525247574,V
1526529942.63741,-0.439595006364659,1.38826892426212,1.63706830901116,-0.227729290723801,-0.0456341467797756,-0.0601074248552322,V
1526529942.63895,-0.430013997130186,1.37128231516366,1.62378891957055,-0.222354024648666,-0.0488592050969601,-0.0442157350480556,V
1526529942.65338,-0.415840127068498,1.35569288374018,1.60545847975484,-0.218753069639206,-0.0520678982138634,-0.0291074085980654,V
1526529942.66996,-0.395283559071146,1.34130114228873,1.5804703063738,-0.286959499120712,-0.196033701300621,-0.0196092817932367,V
1526529942.67068,-0.369966745004106,1.32719130682111,1.55076160720567,-0.287342339754105,-0.199340328574181,-0.00467038666829467,V
1526529942.68486,-0.343945433728497,1.31256565065156,1.52018983092703,-0.110665440559387,-0.336470872163773,0.0421104356646538,V
1526529942.70187,-0.319293092352818,1.29737629374716,1.49096817706955,-0.0258357673883438,-0.440497785806656,-0.0771941617131233,V
1526529942.70255,-0.29657501372268,1.28247230676237,1.46373306609609,-0.0274966396391392,-0.444629043340683,-0.0616402365267277,V
1526529942.71692,-0.276559046707072,1.26831566826718,1.43943759742977,0.093468502163887,-0.515782237052917,-0.149618178606033,V
1526529942.73503,-0.259840857310487,1.2549421240519,1.41858980388397,0.0919395163655281,-0.519851326942444,-0.135986745357513,V
1526529942.73582,-0.246340171437361,1.24275283513089,1.40068967770419,0.0906991437077522,-0.523708164691925,-0.123722791671753,V
1526529942.74901,-0.234825795509665,1.23210110307897,1.38490795166107,0.111456528306007,-0.535814940929413,-0.233563750982285,V
1526529942.7643,-0.224917330326376,1.22300690002069,1.37109308458072,0.150611951947212,-0.54348361492157,-0.243691712617874,V
1526529942.76753,-0.2167767596349,1.21521751985085,1.35960104958917,0.149477690458298,-0.546166896820068,-0.235942497849464,V
1526529942.78049,-0.211397099927129,1.20904615848966,1.35166200985993,0.224925190210342,-0.544655859470367,-0.246526673436165,V
1526529942.79588,-0.208944004280191,1.20438677273407,1.34702441796592,0.167911380529404,-0.515263378620148,-0.255956500768661,V
1526529942.79669,-0.208660093426944,1.20149646484206,1.34506743473241,0.168370544910431,-0.516302764415741,-0.253296971321106,V
1526529942.81225,-0.209958569834838,1.20061946827986,1.34501096005799,0.168999448418617,-0.516619682312012,-0.252594590187073,V
1526529942.82796,-0.213031625881048,1.20106858665889,1.34669232345057,0.107330061495304,-0.479454725980759,-0.186342716217041,V
1526529942.82873,-0.217855727247581,1.20276288993449,1.34976458167747,0.108691439032555,-0.478843808174133,-0.188258364796638,V
1526529942.84371,-0.223988803825379,1.20548205399846,1.35395195864364,0.0258384011685848,-0.410516649484634,-0.134377896785736,V
1526529942.85961,-0.230052246589518,1.20917438622352,1.35836522690397,-0.0212694071233273,-0.341821163892746,-0.0741234496235847,V
1526529942.86038,-0.235856480909811,1.21361270210969,1.36308145748484,-0.0202422495931387,-0.340260148048401,-0.0786372125148773,V
1526529942.87532,-0.241188524409915,1.2184551244134,1.36758961113212,-0.0830377116799355,-0.257843792438507,-0.031912412494421,V
1526529942.89241,-0.246301546475262,1.22388866530238,1.37169591068287,-0.0825700387358665,-0.255982547998428,-0.0372890047729015,V
1526529942.89369,-0.251150087753196,1.22990548584695,1.37530558222839,-0.0823800340294838,-0.25395393371582,-0.0431816019117832,V
1526529942.90735,-0.257360573792477,1.23615975991003,1.38015040331218,-0.0698027014732361,-0.189747616648674,0.0065893642604351,V
1526529942.92362,-0.265328175861107,1.24245958624503,1.38671804080143,-0.0595747567713261,-0.173521921038628,0.0592011027038097,V
1526529942.92442,-0.273830788848081,1.24862268585163,1.39408593936878,-0.058511208742857,-0.171552509069443,0.0528485141694546,V
1526529942.93938,-0.282420883879546,1.25452763489061,1.40166753714036,-0.1098722666502,-0.223578155040741,0.102045625448227,V
1526529942.95535,-0.292402196159352,1.26022849131842,1.41025422011121,-0.160735055804253,-0.383395850658417,0.0595957189798355,V
1526529942.95614,-0.304855132520313,1.26617832026794,1.42064332592268,-0.158799946308136,-0.381594449281693,0.0530669800937176,V
1526529942.97117,-0.32018441908728,1.27327426623625,1.43305493560016,-0.156557932496071,-0.379490196704865,0.0452210567891598,V
1526529942.98677,-0.338861952445458,1.28182628728986,1.4476996384334,-0.213546931743622,-0.629413783550262,-0.00710347387939692,V
1526529942.98754,-0.36045203433417,1.29166151041342,1.46401694620792,-0.211096733808517,-0.626657485961914,-0.0180454589426517,V
1526529943.00259,-0.383532674512392,1.30305352130295,1.48064277353849,-0.32129180431366,-0.929291009902954,-0.0506855100393295,V
1526529943.01861,-0.407308671864541,1.316846009433,1.4971696994862,-0.393443733453751,-1.03582608699799,-0.197622433304787,V
1526529943.01958,-0.433152423373585,1.3337645534215,1.51501790499346,-0.394404381513596,-1.03171443939209,-0.215166687965393,V
1526529943.0359,-0.460448830793417,1.35355033455071,1.53352233609072,-0.397189915180206,-1.02725887298584,-0.235205709934235,V
1526529943.05057,-0.485308099165253,1.37463552339196,1.54939013707001,-0.420753419399261,-0.646070003509521,0.0694181844592094,V
1526529943.0514,-0.499054087593199,1.39579877435792,1.55449623102414,-0.428346812725067,-0.642165124416351,0.0498894713819027,V
1526529943.0679,-0.493287461412614,1.41612607806166,1.54023483309927,-0.277393400669098,-0.212941646575928,0.181891694664955,V
1526529943.0826,-0.460969239279444,1.43441754502238,1.5004942592221,-0.289866149425507,-0.2102892100811,0.167969137430191,V
1526529943.08459,-0.396845065230372,1.44970647426692,1.43094554355955,-0.303653597831726,-0.208326444029808,0.15761025249958,V
1526529943.09789,-0.30713823038976,1.46148674423426,1.33700959774335,0.0114213461056352,0.228437170386314,0.110288694500923,V
1526529943.11416,-0.208953929665525,1.46991621252592,1.23531137645662,0.400712549686432,0.572171151638031,-0.0561140514910221,V
1526529943.11574,-0.124288489535948,1.47631782291558,1.1469199675241,0.391516745090485,0.572795450687408,-0.0610222704708576,V
1526529943.12965,-0.0668326118868658,1.48293606883523,1.08481916517495,0.52128666639328,0.804141402244568,-0.297794103622437,V
1526529943.14781,-0.0280462600382715,1.49130282889097,1.03980311726275,0.326674491167068,0.92610228061676,-0.367505580186844,V
1526529943.14857,0.0105556986031349,1.50147700812935,0.992534000377474,0.323716521263123,0.926858603954315,-0.377624183893204,V
1526529943.1616,0.040419909510598,1.51255582859297,0.952844873055927,0.322095513343811,0.927564740180969,-0.388724118471146,V
1526529943.17821,0.0471567554438375,1.52350312096977,0.93679603174456,0.40209886431694,0.875606119632721,-0.226138189435005,V
1526529943.17902,0.0199772932242557,1.53352378667713,0.956654393271447,0.403583019971848,0.87602972984314,-0.236104726791382,V
1526529943.19312,-0.0473142645989215,1.54155787336038,1.01923571445331,0.259530872106552,0.803222477436066,-0.0895728394389153,V
1526529943.20897,-0.151301173859788,1.54700826284568,1.12092215224724,0.1341392993927,0.683265030384064,-0.0112301763147116,V
1526529943.20979,-0.282409808076709,1.55041938263503,1.25077661581319,0.136232271790504,0.68334037065506,-0.0151758715510368,V
1526529943.22476,-0.442569525985949,1.55245637331731,1.41002057519528,0.0608018785715103,0.527740180492401,0.000626612629275769,V
1526529943.24142,-0.605917895529031,1.55336498832854,1.57232884687935,0.062874935567379,0.52775639295578,-0.00161795399617404,V
1526529943.24229,-0.713977411301172,1.55342717354334,1.67919678309811,0.0643215253949165,0.527757465839386,-0.0028191264718771,V
1526529943.25714,-0.761256640768125,1.55295406519144,1.72575842786232,-0.00488914968445897,0.348015874624252,0.0481033399701118,V
1526529943.27267,-0.760228435799068,1.55233565046545,1.72451086528881,-0.0159509759396315,0.220807388424873,0.0461226589977741,V
1526529943.27332,-0.720389606085411,1.55138987362248,1.68484291594152,-0.0158700663596392,0.220789477229118,0.0473293401300907,V
1526529943.28882,-0.649864956322029,1.55024856929934,1.61464202712146,-0.0258521623909473,0.116305015981197,0.0173043105751276,V
1526529943.30514,-0.571171739320965,1.54889395167332,1.53604243930979,-0.0117959892377257,0.0352673530578613,-0.0419852510094643,V
1526529943.30594,-0.499303031850093,1.54776954761967,1.46370971934988,-0.0126112997531891,0.0352420993149281,-0.040195744484663,V
1526529943.3201,-0.447084947904789,1.54701807469876,1.41093679714687,-0.0133565710857511,0.035224512219429,-0.038970448076725,V
1526529943.3361,-0.405666508890248,1.54621264385968,1.36898363220041,-0.00221660151146352,-0.0258911531418562,0.00303967692889273,V
1526529943.33718,-0.370633337521966,1.54520032441894,1.33363449811185,-0.00264710513874888,-0.0259165484458208,0.00430887239053845,V
1526529943.35211,-0.347499319598917,1.5442319386522,1.31033888953986,0.0030791899189353,-0.0335406772792339,0.0024821690749377,V
1526529943.36966,-0.332685540688272,1.54380937734776,1.29547575970861,-0.0375438071787357,-0.0321176648139954,-0.0818567126989365,V
1526529943.37051,-0.314750164074898,1.54487847600219,1.27766466780527,-0.0383334793150425,-0.03208938986063,-0.0827189981937408,V
1526529943.3842,-0.300850814627399,1.54709689897442,1.26416305842794,-0.0393339395523071,-0.0320343598723412,-0.0847279950976372,V
1526529943.40329,-0.290150950896832,1.55089876631076,1.25397756069548,-0.0450279600918293,-0.0339656509459019,-0.127648651599884,V
0,0,0,0,0,0,0,0,0
1526529944.13055,0.261069509007043,1.51692929830064,0.991481073211007,-0.0119592435657978,0.0460959076881409,0.130004227161407,V
1526529944.1315,0.303900918406459,1.51845308020712,0.950713229143531,-0.0137184178456664,0.0461767911911011,0.127909556031227,V
1526529944.14602,0.295045722662237,1.51506804451139,0.959487181364488,0.103768117725849,-0.0726583749055862,0.525750517845154,V
1526529944.16215,0.238098263821639,1.50635680435613,1.01594705590744,0.104776732623577,-0.0731814652681351,0.535036146640778,V
1526529944.16318,0.189353185161506,1.49790937647445,1.06542062344845,0.106257691979408,-0.0737610384821892,0.543978691101074,V
1526529944.17833,0.170090376889823,1.49235906936321,1.08597347924994,-0.0821264907717705,0.0182419028133154,-0.164137408137321,V
1526529944.19403,0.168471178720536,1.48944820090166,1.08886843187126,-0.0516194216907024,0.00160639558453113,-0.213013336062431,V
1526529944.19482,0.171073718898568,1.48846373827095,1.08615909822617,-0.0519948936998844,0.00152591662481427,-0.212082222104073,V
1526529944.21054,0.173681669112483,1.48847557831746,1.08280721423506,0.00872419029474258,0.00123697333037853,-0.0581389367580414,V
1526529944.22546,0.176257701323732,1.48865628321136,1.0799597726678,-0.00288165081292391,0.00746214296668768,-0.0362736470997334,V
1526529944.22624,0.17861226817812,1.48895726760868,1.07821732087233,-0.00301851006224751,0.0074867932125926,-0.0366029441356659,V
1526529944.2421,0.185372772943919,1.48959807553552,1.07252569305956,-0.00344432098791003,0.00753897288814187,-0.0373307056725025,V
1526529944.25754,0.195718142171088,1.49036651848849,1.06322417947968,-0.00593507708981633,0.00255034724250436,-0.0245232880115509,V
1526529944.2583,0.205938340720826,1.49100166085199,1.05421643662459,-0.00661023193970323,0.00260117556899786,-0.0253068134188652,V
1526529944.27265,0.212997036495953,1.49100148843589,1.0484821473774,0.0539203137159348,-0.00348709500394762,0.0283635891973972,V
1526529944.2892,0.209950839779853,1.49033249749089,1.05221145644527,0.0933711603283882,0.00654541607946157,0.0265490561723709,V
1526529944.28996,0.198897019843597,1.48953959190501,1.06369965955283,0.0940849706530571,0.0064813713543117,0.027504151687026,V
1526529944.30513,0.180159979034616,1.48894489943756,1.08294555645191,0.0250835493206978,0.00136700749862939,-0.0134505508467555,V
1526529944.3214,0.160541739244509,1.48858376474688,1.10338759121397,0.0266067609190941,0.00133741612080485,-0.0128233414143324,V
1526529944.32248,0.142861242221935,1.48877598853987,1.12172659653733,0.0280692651867867,0.00135318317916244,-0.0127935539931059,V
1526529944.3365,0.125152480853367,1.48928962251652,1.13998770522651,0.0025781923905015,-0.00507459370419383,-0.0238040387630463,V
1526529944.35319,0.112347425098195,1.49008373508192,1.1532300801872,-0.0436458997428417,-0.0225273445248604,0.012611816637218,V
1526529944.35401,0.10561129009503,1.49071216509673,1.16045607531018,-0.0430399887263775,-0.0224768742918968,0.0120479762554169,V
1526529944.36894,0.101330563662488,1.49081061449721,1.16567859892776,-0.028727650642395,-0.0297932215034962,0.0338820777833462,V
1526529944.38503,0.101724284453625,1.49072809857433,1.1667841718332,-0.00177450233604759,-0.00654542306438088,-0.0228172373026609,V
1526529944.3857,0.102318476868371,1.49070987853782,1.16828362595595,-0.00182363542262465,-0.00654688058421016,-0.0228040106594563,V
1526529944.40227,0.0995058494740657,1.49103938721807,1.17312648922326,-0.00156713800970465,-0.00652057398110628,-0.0231081750243902,V
1526529944.41629,0.0914823844264974,1.49179778144477,1.18281363098734,0.00737800728529692,0.0178010370582342,-0.0406457707285881,V
1526529944.41734,0.0800594109263937,1.49277016742969,1.1953183844382,0.00835367478430271,0.0178773030638695,-0.0415348336100578,V
1526529944.43478,0.063505159810751,1.49378691680001,1.21242316304579,-0.0146632632240653,0.0635035261511803,-0.0284005980938673,V
1526529944.44855,0.0453820282919475,1.49489575983966,1.23100909919118,-0.0390235297381878,0.108189657330513,0.00104260956868529,V
1526529944.44942,0.0265955069939726,1.49586062151308,1.2501958614772,-0.0375743508338928,0.108262360095978,0.000132086453959346,V
1526529944.46482,0.00461279973625533,1.49674074258851,1.2727270131034,-0.0672815963625908,0.212392807006836,0.0115481615066528,V
1526529944.47999,-0.0215684002002775,1.49733913939381,1.29950646905175,-0.0653574988245964,0.212436899542809,0.0109351081773639,V
1526529944.48081,-0.051088387077678,1.49764809298411,1.32972369665741,-0.0632082372903824,0.212459534406662,0.0105487005785108,V
1526529944.49575,-0.0808922620517545,1.49757304090968,1.36027917401255,-0.105035200715065,0.363851755857468,0.0137603189796209,V
1526529944.51177,-0.109238576990122,1.49684072721459,1.38908507220602,-0.110886864364147,0.483533620834351,0.0642314776778221,V
1526529944.5126,-0.135878285287198,1.49515456886626,1.41604281872021,-0.108705557882786,0.483407616615295,0.0656567886471748,V
1526529944.52743,-0.165803441651156,1.49221703314292,1.44617447217355,-0.0333088859915733,0.575847923755646,0.0997607931494713,V
1526529944.54462,-0.203102270358064,1.48808127504255,1.48380707441591,-0.0295993126928806,0.575514793395996,0.103261403739452,V
1526529944.54566,-0.244319094555303,1.4827981399639,1.52576915337797,-0.0250057280063629,0.575064361095428,0.107613548636436,V
1526529944.55933,-0.279372721492938,1.47614580737269,1.5617599313816,0.00311196851544082,0.582865297794342,0.147683992981911,V
1526529944.57579,-0.304083610070483,1.46793333011667,1.58744857237206,0.0302107892930508,0.567285060882568,0.210840106010437,V
1526529944.57669,-0.321587864843682,1.45803149574341,1.60583725115331,0.0350324213504791,0.566219568252563,0.21962659060955,V
1526529944.59101,-0.335503243311506,1.4467747492341,1.62011779746524,0.130481004714966,0.446741163730621,0.169495344161987,V
1526529944.60685,-0.353405051723816,1.43394628280876,1.63733370769809,0.10539710521698,0.303822010755539,0.0558487325906754,V
1526529944.60745,-0.375719914704974,1.41979803346698,1.65773440231498,0.113379113376141,0.301792800426483,0.0677884817123413,V
1526529944.62345,-0.400108348443934,1.40571552682448,1.67957420962105,0.122192069888115,0.299576461315155,0.0792093351483345,V
1526529944.63897,-0.422024918208627,1.39243622416023,1.69864199735659,-0.098440982401371,0.113087989389896,-0.0845034494996071,V
1526529944.63947,-0.435446054422032,1.38000508768016,1.70924894785582,-0.0911208465695381,0.110806524753571,-0.0744137540459633,V
1526529944.65458,-0.438839412718547,1.36840615038965,1.70986975330166,-0.27567645907402,-0.037729799747467,-0.0526698529720306,V
1526529944.67049,-0.431816755917088,1.35768179651057,1.70043657973052,-0.272793471813202,-0.153894439339638,-0.00657914206385612,V
1526529944.67161,-0.417117157714699,1.34709577359128,1.683692172725,-0.27143982052803,-0.156188160181046,0.0041496753692627,V
1526529944.68687,-0.3987308129753,1.33582918695676,1.66384052773267,-0.165226578712463,-0.198208600282669,0.0340976119041443,V
1526529944.70291,-0.379706439010972,1.32390655858047,1.64342314406008,-0.165032893419266,-0.201053366065025,0.046531792730093,V
1526529944.70388,-0.362086325007804,1.31187241979661,1.62427633168363,-0.164919033646584,-0.204064533114433,0.0589883290231228,V
1526529944.71875,-0.344883683615346,1.30023219736262,1.60526910336474,-0.127517953515053,-0.25541964173317,-0.0146225234493613,V
1526529944.73551,-0.327788548259327,1.28936478472704,1.58556841135279,-0.081116646528244,-0.333790004253387,-0.0248674638569355,V
1526529944.73606,-0.312548190258565,1.27861438189308,1.56676759760365,-0.0819636955857277,-0.33683118224144,-0.0137236528098583,V
1526529944.75055,-0.299368278859732,1.26781177323593,1.54920593585929,-0.00531317573040724,-0.398836493492126,-0.0372118763625622,V
1526529944.76883,-0.288603974119034,1.25748899243567,1.53387359568076,-0.00631992425769567,-0.427800446748734,-0.131038531661034,V
1526529944.76943,-0.279606501208491,1.24794109381463,1.52051767784033,-0.00647901510819793,-0.430786490440369,-0.121544532477856,V
1526529944.78246,-0.270976284284692,1.23943614445217,1.50818033783733,-0.00695824157446623,-0.433519154787064,-0.113040156662464,V
1526529944.80092,-0.262162528850535,1.23230251216199,1.49640155825056,-0.0223825424909592,-0.471889972686768,-0.170795500278473,V
1526529944.8015,-0.25409240695878,1.22644109300799,1.48565101324605,-0.0235852506011724,-0.473852545022964,-0.164765670895576,V
1526529944.81341,-0.247828011588265,1.22157440533877,1.47659857373405,0.0299322884529829,-0.505505442619324,-0.152311310172081,V
1526529944.82983,-0.244012437443824,1.21789101053034,1.46971796002779,0.0128390314057469,-0.509900152683258,-0.230973616242409,V
1526529944.83061,-0.241896532620896,1.21585666949886,1.46445494422383,0.0125863095745444,-0.510605216026306,-0.22894498705864,V
1526529944.84593,-0.241150756211736,1.21546813269178,1.46061392809673,0.0263376664370298,-0.498045027256012,-0.199934273958206,V
1526529944.86093,-0.242249856634557,1.21629991591131,1.45907996875809,0.0265218280255795,-0.497755974531174,-0.200782969594002,V
1526529944.86202,-0.246374000623331,1.21797811309599,1.46095486740214,0.0275269169360399,-0.497174769639969,-0.202656045556068,V
1526529944.87715,-0.253407136676751,1.22061104318103,1.4656412392861,0.0265764109790325,-0.470221489667892,-0.162131980061531,V
1526529944.89293,-0.263912621526414,1.22427999181587,1.4736278570862,-0.0327896438539028,-0.436956137418747,-0.149338960647583,V
1526529944.89371,-0.278534504068944,1.22902046587708,1.48519966658605,-0.0292322430759668,-0.435356736183167,-0.15495990216732,V
1526529944.90939,-0.297729129779896,1.23496918484718,1.50040343112951,-0.146856710314751,-0.400756359100342,-0.118374206125736,V
1526529944.92462,-0.321560253632566,1.24210425400314,1.51893510889864,-0.298414647579193,-0.375647664070129,-0.0130459107458591,V
1526529944.92541,-0.349598219480815,1.25001978836799,1.54027763029857,-0.292438507080078,-0.373122185468674,-0.023074422031641,V
1526529944.9409,-0.380447663438612,1.25855830128243,1.56339803349842,-0.286365926265717,-0.370464593172073,-0.034080695360899,V
1526529944.95675,-0.413119602856741,1.2675608594069,1.58732382536211,-0.437505960464478,-0.389603525400162,0.0681051388382912,V
1526529944.95754,-0.44541925988462,1.27696544667089,1.60961137066625,-0.432609051465988,-0.386837482452393,0.0559794418513775,V
1526529944.97229,-0.477086932525947,1.28655126376846,1.63013457074444,-0.517711460590363,-0.409953624010086,0.16827766597271,V
1526529944.9881,-0.50724152513736,1.29648135451174,1.64842608847699,-0.541934430599213,-0.465443819761276,0.211633056402206,V
1526529944.9889,-0.533231298586885,1.3069263617077,1.66186415699483,-0.540944039821625,-0.46266695857048,0.199462339282036,V
1526529945.00367,-0.552968639009034,1.31789248138751,1.66857151604709,-0.513891816139221,-0.511882126331329,0.228215798735619,V
1526529945.0202,-0.564624411562896,1.3297801104014,1.66721295753682,-0.517587006092072,-0.508976101875305,0.21693180501461,V
1526529945.02128,-0.56765173115153,1.34258737617485,1.65745012140492,-0.523674309253693,-0.505998849868774,0.206041485071182,V
1526529945.0357,-0.562032168942201,1.3558786243755,1.63871439295967,-0.361247837543488,-0.474391549825668,0.161219656467438,V
1526529945.05224,-0.54886236153204,1.3700017660648,1.61158552086198,-0.119394294917583,-0.353313028812408,-0.0276316329836845,V
1526529945.05306,-0.531294541022549,1.38482360749422,1.57862876299672,-0.129768848419189,-0.350464582443237,-0.0383703224360943,V
1526529945.06879,-0.513094257045445,1.40041140508651,1.54373852125539,0.18842776119709,-0.143218830227852,-0.311226636171341,V
1526529945.08412,-0.496515908943638,1.41707344219319,1.51028837383053,0.450320512056351,0.100451536476612,-0.329238414764404,V
1526529945.08492,-0.479056078468906,1.43428593024389,1.47840487774313,0.440108448266983,0.102940566837788,-0.343099623918533,V
1526529945.10122,-0.457348139944715,1.450746045874,1.44637216634507,0.430263787508011,0.105046264827251,-0.356413424015045,V
1526529945.11562,-0.43885586490642,1.46509126869084,1.42149216569548,0.742478013038635,0.313220292329788,-0.169382393360138,V
1526529945.11641,-0.431553376560908,1.47645715016672,1.41113211194225,0.737048983573914,0.314355224370956,-0.179329738020897,V
1526529945.13116,-0.448367021560125,1.48528076048451,1.42577876788501,0.786216676235199,0.48963189125061,-0.0920983925461769,V
1526529945.14722,-0.497809483259773,1.49251888283403,1.47086238416003,0.55706912279129,0.613957524299622,-0.0618779696524143,V
1526529945.14841,-0.569818680414251,1.49827074914716,1.53591826872878,0.558821380138397,0.614390850067139,-0.0695717856287956,V
1526529945.16364,-0.645245564463476,1.50239288797735,1.60299353620511,0.560835003852844,0.61468106508255,-0.0759762525558472,V
1526529945.17901,-0.718229034850086,1.5056039978051,1.66864765599099,0.360740661621094,0.667873919010162,-0.0482978187501431,V
1526529945.17982,-0.793504552408455,1.50804458681491,1.73946760987019,0.36257216334343,0.66802990436554,-0.0533689223229885,V
1526529945.19459,-0.877299959658162,1.50943603261307,1.82140500031583,0.342216640710831,0.647104859352112,-0.0698710978031158,V
1526529945.21081,-0.961400457059539,1.50978231264267,1.9049573463298,0.14860238134861,0.612976849079132,0.0361217632889748,V
1526529945.21163,-1.02742455062875,1.50936384940982,1.97131219854327,0.151153594255447,0.612951278686523,0.0329628586769104,V
1526529945.22643,-1.0680066941098,1.5083877525216,2.01254545918365,0.0178605653345585,0.536139130592346,0.114678658545017,V
1526529945.24372,-1.07680398642916,1.50723808956747,2.02206696626715,0.0191330462694168,0.536066770553589,0.114740759134293,V
1526529945.245,-1.05942030112136,1.50608010205485,2.00578568730821,0.0196088757365942,0.535992562770844,0.116273820400238,V
1526529945.25855,-1.02386336393818,1.5047301050725,1.97183360400552,0.0188205409795046,0.439697682857513,0.0984820201992989,V
1526529945.27479,-0.977994000168029,1.50319941065425,1.92750567227462,0.0130214625969529,0.312886476516724,0.0493792481720448,V
1526529945.27564,-0.927586625288793,1.50130347290994,1.87800208582121,0.0125624183565378,0.31275662779808,0.0532884262502193,V
1526529945.28995,-0.882394633260458,1.49906100487277,1.83343729628679,0.00368473213165998,0.197150409221649,-0.0434088446199894,V
1526529945.3057,-0.847176916198613,1.49713794407678,1.79953827360257,-0.0307867620140314,0.0842635482549667,-0.0547293573617935,V
1526529945.30632,-0.816187564383368,1.49548748949865,1.76990388692134,-0.0311238765716553,0.0841407254338264,-0.0519165061414242,V
1526529945.32221,-0.780904426958691,1.49400335607499,1.73570028226132,-0.0319343432784081,0.0840279683470726,-0.0489638894796371,V
1526529945.33795,-0.738621384918143,1.49225316204385,1.69440093289308,-0.0531001724302769,-0.000107465115434024,0.0398874804377556,V
1526529945.33905,-0.690320573665227,1.49019232389222,1.64714781700818,-0.0546547025442123,-0.000271280354354531,0.0439543500542641,V
1526529945.35349,-0.636592285450664,1.48795872192622,1.59397245446053,-0.0804056599736214,-0.0530811734497547,0.0410230346024036,V
1526529945.36945,-0.578985520673078,1.48541281137279,1.53646401734594,-0.0165846943855286,-0.0885428637266159,0.0280915647745132,V
1526529945.37002,-0.524141460451986,1.48251687156045,1.48211351582118,-0.0191238336265087,-0.0887940004467964,0.0330398678779602,V
1526529945.38574,-0.476246500257793,1.47944843396549,1.43533817627712,0.0525620989501476,-0.103626102209091,-0.024810716509819,V
1526529945.40287,-0.438728959501719,1.47669176650647,1.39930396080797,0.0506578087806702,-0.103881351649761,-0.0208142846822739,V
1526529945.40351,-0.411444282250529,1.47490093282467,1.37318881107917,0.0490352138876915,-0.104051224887371,-0.0181230213493109,V
1526529945.41752,-0.390922105309866,1.47420822835406,1.35367955019738,0.0428961291909218,-0.104117795825005,-0.0830481722950935,V
1526529945.43614,-0.374655872495564,1.47528060804024,1.33880274238924,0.0446209199726582,-0.0999561101198196,-0.209905236959457,V
1526529945.43684,-0.365547013436064,1.47845809714295,1.33127777607864,0.0426802076399326,-0.0996580943465233,-0.212545484304428,V
1526529945.44922,-0.365751611716019,1.48357758360194,1.33326001352888,0.209987372159958,-0.0824144259095192,-0.203031599521637,V
0,0,0,0,0,0,0,0,0
1526529946.10281,-0.200931466619173,1.47318667525825,1.58717876175723,-0.13806626200676,-0.0194695144891739,0.00291897170245647,V
1526529946.10346,-0.170852865148834,1.47776840108547,1.56245402782417,-0.141722410917282,-0.0190334506332874,-0.00103379250504076,V
1526529946.1161,-0.137402494786711,1.47991203893362,1.53166115841764,-0.0365035943686962,-0.0186077263206244,0.169173240661621,V
1526529946.13506,-0.103994704106894,1.47474797048618,1.49980162132385,0.0549075938761234,-0.0547494776546955,0.573486268520355,V
1526529946.13581,-0.0803802657528792,1.46472165189434,1.47867896513082,0.0534535609185696,-0.0557610243558884,0.583637654781342,V
1526529946.14778,-0.0633964953749571,1.45451799620104,1.46455758883698,-0.00606236327439547,0.0287239737808704,-0.0197298880666494,V
1526529946.16345,-0.0518416781860555,1.44670917743967,1.4559121317214,-0.0201672948896885,0.0274367965757847,-0.182381823658943,V
1526529946.16442,-0.0470106338947552,1.44194036428124,1.45274730227205,-0.0205421838909388,0.0268352832645178,-0.17762678861618,V
1526529946.1796,-0.0452364374507127,1.4395496378347,1.45157954933266,-0.0206627268344164,0.026525242254138,-0.17524816095829,V
1526529946.19593,-0.0445621000930521,1.43837993014908,1.45157409312925,-0.0406729876995087,0.0395398177206516,-0.0592023767530918,V
1526529946.19687,-0.044223251575649,1.43769716477108,1.45203782277199,-0.0406877622008324,0.0394494421780109,-0.0585242919623852,V
1526529946.21154,-0.0437527814926964,1.43727151094258,1.45219919295471,-0.0380766578018665,0.0317024365067482,0.0128532946109772,V
1526529946.22732,-0.0438654851251534,1.43695711087083,1.45252276825362,-0.0168993212282658,0.0363602377474308,0.00712145166471601,V
1526529946.22816,-0.0468218434854666,1.43670182438768,1.45570087752547,-0.0164933893829584,0.036326140165329,0.00735629163682461,V
1526529946.24362,-0.0504569848953647,1.43673050366944,1.45967055693165,-0.0404539853334427,0.0299975778907537,0.0197249315679073,V
1526529946.25895,-0.0550953117233626,1.43672710078987,1.46490977688332,-0.0398346818983555,0.0299971215426922,0.0196955930441618,V
1526529946.25973,-0.0576204676978213,1.43654733486178,1.46805799773605,-0.0394874252378941,0.0299730766564608,0.0198544356971979,V
1526529946.27506,-0.0578394780618679,1.4362400697128,1.46880424374926,-0.0433925874531269,0.0227144975215197,0.0407255776226521,V
1526529946.29086,-0.0568805677090985,1.43595192773287,1.46818197439947,-0.00168043980374932,0.0139935510233045,0.00874568335711956,V
1526529946.29167,-0.0566499055357468,1.4359877610082,1.46816904026422,-0.00171340967062861,0.0139983668923378,0.0087119909003377,V
1526529946.30708,-0.05726503920341,1.4362705357661,1.46901345995836,-0.00437823031097651,0.00926033221185207,0.0110978176817298,V
1526529946.32292,-0.0576809946985468,1.43657072739079,1.46994012755002,-0.00433968426659703,0.00930054858326912,0.0107976226136088,V
1526529946.32369,-0.0563472329260261,1.43675095303516,1.46962472011855,-0.00452794041484594,0.00932465121150017,0.0106294704601169,V
1526529946.33892,-0.0525791789290997,1.43693260326903,1.4669830536157,-0.0197954829782248,0.00719742197543383,0.016077084466815,V
1526529946.35453,-0.0490529581096132,1.43699417957548,1.46445113390278,0.00980658177286386,0.0175358392298222,0.00195617484860122,V
1526529946.35531,-0.0460564164614448,1.43741727917189,1.46241163093343,0.00938797928392887,0.0175921935588121,0.00155629252549261,V
1526529946.36963,-0.0439917673497402,1.43800635449535,1.46132340116653,0.0189757104963064,0.0334326885640621,-0.0168521758168936,V
1526529946.38653,-0.0452243957555771,1.43861645167039,1.4633216420341,0.0104138981550932,0.0628101527690887,0.0110856089740992,V
1526529946.38761,-0.0496251174608287,1.43899157018585,1.46836163145769,0.010974794626236,0.0628595277667046,0.0106867151334882,V
1526529946.40258,-0.0545773222141176,1.43935201228955,1.47405407700813,0.0116052543744445,0.0629068315029144,0.0102960290387273,V
1526529946.41843,-0.0581729273527343,1.43967472366248,1.47870072031531,0.00128446135204285,0.101035013794899,0.00880567356944084,V
1526529946.41935,-0.0632859820327375,1.43975671056092,1.48489201021605,0.00194660003762692,0.101045727729797,0.00868397951126099,V
1526529946.43498,-0.0719616449054659,1.43970473860945,1.49399372462187,0.00700282398611307,0.132792472839355,0.0242532547563314,V
1526529946.45,-0.0820345031303429,1.43951337012398,1.5035397955171,-0.0496522448956966,0.179978132247925,0.00877709407359362,V
1526529946.45108,-0.0930954112890178,1.4394213751881,1.51356626978253,-0.0482013821601868,0.17996609210968,0.00874127540737391,V
1526529946.46776,-0.10328062182198,1.43976928698445,1.5228152934731,-0.0778997391462326,0.257190555334091,-0.0345640257000923,V
1526529946.48233,-0.113923444357894,1.44030978626791,1.5325747731576,-0.0765783488750458,0.257261037826538,-0.0352471508085728,V
1526529946.48326,-0.125554206016288,1.44069772799828,1.54320202475216,-0.0751240029931068,0.257311433553696,-0.035809550434351,V
1526529946.49718,-0.136567810573206,1.44108157169573,1.55357337361606,-0.102491565048695,0.363867521286011,-0.050884447991848,V
1526529946.51331,-0.146464658799288,1.44083615820918,1.5636221392397,-0.111076377332211,0.454152494668961,0.0110653815791011,V
1526529946.51413,-0.154592683195413,1.43967178431457,1.5724949429334,-0.109857179224491,0.454000949859619,0.0120481196790934,V
1526529946.52943,-0.162170829232043,1.43767511126968,1.58087997322962,-0.0974355190992355,0.5314661860466,0.0181023478507996,V
1526529946.54503,-0.171831629994858,1.43497100037323,1.59104520766752,-0.0369055308401585,0.571218967437744,0.0245882757008076,V
1526529946.54585,-0.184200556792741,1.43171634453364,1.60364806723965,-0.0346666574478149,0.570773065090179,0.0274611171334982,V
1526529946.56132,-0.19877018334738,1.42724090682902,1.6178695758979,-0.0318088456988335,0.570142686367035,0.0314202904701233,V
1526529946.57688,-0.215705346377768,1.42111187410113,1.63358821047328,-0.0199156757444143,0.565554618835449,0.120844170451164,V
1526529946.57785,-0.238400927230765,1.41372897498597,1.65398724218527,-0.0148951150476933,0.564426720142365,0.12717217206955,V
1526529946.59233,-0.261577026244249,1.40569597826637,1.67396267291668,-0.100701786577702,0.441205322742462,0.0744558274745941,V
1526529946.60863,-0.27778838914539,1.39780397617962,1.68670195876943,-0.237342551350594,0.191998541355133,0.0112809455022216,V
1526529946.60944,-0.285406184910262,1.39103035368328,1.69048757031164,-0.234205439686775,0.190809994935989,0.0173153206706047,V
1526529946.62414,-0.283994084066545,1.38365541052539,1.68474486677995,-0.140146151185036,-0.0652656033635139,0.29990541934967,V
1526529946.64128,-0.274438933234928,1.37387543182893,1.67058943914596,-0.139253318309784,-0.0671321302652359,0.309636294841766,V
1526529946.64264,-0.26027396716669,1.36209675818745,1.65225379942199,-0.138957172632217,-0.0695046111941338,0.321517050266266,V
1526529946.6563,-0.243017262474456,1.34944182201617,1.63117508699566,-0.0781197920441628,-0.271438837051392,0.202128991484642,V
1526529946.67263,-0.222751603360749,1.33685582300965,1.60676981732283,-0.0677468776702881,-0.417010009288788,0.046733345836401,V
1526529946.67313,-0.203402839347858,1.32470772288601,1.5824862816868,-0.0697470679879189,-0.419897794723511,0.0592383705079556,V
1526529946.6878,-0.186689139148473,1.31330024371955,1.5603367143615,0.0343118607997894,-0.489939570426941,-0.0273833572864532,V
1526529946.70345,-0.172451188544175,1.30247001122856,1.54058076048533,0.0754924193024635,-0.493578225374222,-0.0118247047066689,V
1526529946.70409,-0.160388082394883,1.2915958427044,1.52346035626707,0.0740104168653488,-0.496518105268478,-0.00096012931317091,V
1526529946.71958,-0.14958617115877,1.28109612957945,1.50808223380284,0.0725711211562157,-0.499464631080627,0.00946460664272308,V
1526529946.73582,-0.141900143339282,1.27081100022841,1.49622121873079,0.0945566818118095,-0.491405993700027,-0.0468956902623177,V
1526529946.73636,-0.138595193803702,1.26102059376314,1.489186446775,0.0948798209428787,-0.494344860315323,-0.0375098548829556,V
1526529946.75201,-0.138219719091866,1.252249524994,1.48521768591853,0.0633535236120224,-0.495102167129517,-0.0887869223952293,V
1526529946.76869,-0.140629345748024,1.24470124219371,1.48396441580135,0.0101269744336605,-0.446986615657806,-0.0813604220747948,V
1526529946.76925,-0.144413200030996,1.23809485408809,1.48381295408763,0.0122264493256807,-0.449123620986938,-0.0753464698791504,V
1526529946.78412,-0.149034817360528,1.23247075832636,1.48460569720565,-0.0201445501297712,-0.412950456142426,-0.059283409267664,V
1526529946.80215,-0.154069493211036,1.22775969379913,1.48604552474642,-0.0178112424910069,-0.414524555206299,-0.0551479868590832,V
1526529946.80328,-0.159448074783403,1.22364684249729,1.48777928236229,-0.0154098384082317,-0.415915876626968,-0.0516091398894787,V
1526529946.8154,-0.166019072676059,1.22007025791705,1.49060782142162,-0.0317371115088463,-0.364221215248108,-0.0267143659293652,V
1526529946.8308,-0.173319358948636,1.21757098386822,1.49404922982023,-0.0449888594448566,-0.325806736946106,-0.0846719667315483,V
1526529946.83453,-0.182104878393905,1.21611319697053,1.49917314797594,-0.0417499542236328,-0.326312035322189,-0.0838644057512283,V
1526529946.84675,-0.19226106360331,1.21533645384818,1.50575216046398,-0.050062358379364,-0.312193036079407,-0.0467270538210869,V
1526529946.86311,-0.201522028414282,1.21538173801764,1.51175906913543,-0.026280241087079,-0.310178369283676,-0.0289054866880178,V
1526529946.86424,-0.210495420015744,1.21616676668781,1.51780585744459,-0.0233775228261948,-0.309905469417572,-0.0302640441805124,V
1526529946.87864,-0.220520490101862,1.21759118684447,1.52526932007423,-0.0202691908925772,-0.309411823749542,-0.0323122404515743,V
1526529946.89491,-0.233945952087832,1.21972845605042,1.53568568104528,-0.0204363856464624,-0.356861919164658,-0.036713719367981,V
1526529946.89578,-0.253312478796822,1.22254195310309,1.5507026192599,-0.0146354353055358,-0.355898052453995,-0.0408791974186897,V
1526529946.91036,-0.277109410087984,1.22618562827647,1.56905453873161,-0.164596617221832,-0.488999247550964,-0.0329222306609154,V
1526529946.92602,-0.303093939645686,1.23048001325167,1.58868489319058,-0.459821820259094,-0.653481245040894,0.0170721337199211,V
1526529946.92688,-0.328237793285829,1.23553426580574,1.60658452899062,-0.453381359577179,-0.651806235313416,0.00995266623795033,V
1526529946.94254,-0.350199253015812,1.24195462803258,1.62009559129336,-0.448649972677231,-0.649713337421417,0.0018471241928637,V
1526529946.95802,-0.367467420700137,1.25037629305351,1.62779704427828,-0.702201187610626,-0.749550998210907,-0.0161203742027283,V
1526529946.95882,-0.377935447105589,1.26097452443102,1.62757805164454,-0.702848672866821,-0.74626624584198,-0.0266861524432898,V
1526529946.97453,-0.380043537759879,1.27415263263992,1.61771149950688,-0.821220576763153,-0.760428130626678,-0.0349412523210049,V
1526529946.99016,-0.375244683573374,1.28954464762321,1.5995142530402,-0.516621947288513,-0.645171940326691,-0.0435430370271206,V
1526529946.99108,-0.365074621905901,1.30673913029621,1.57552038096884,-0.525165498256683,-0.640541732311249,-0.0579896718263626,V
1526529947.00578,-0.350297328279467,1.32471740730443,1.54606059589411,-0.27479949593544,-0.412723809480667,-0.0541804470121861,V
1526529947.02203,-0.329812933808803,1.34308634731631,1.50981281749305,-0.285286575555801,-0.408412963151932,-0.0694094002246857,V
1526529947.02279,-0.304990465969134,1.36190564225184,1.46953935984949,-0.296127080917358,-0.40433731675148,-0.0851850584149361,V
1526529947.03757,-0.272960992290077,1.38035300995455,1.42350652731848,0.0538535639643669,-0.136625111103058,-0.176875427365303,V
1526529947.05333,-0.2318006528951,1.39697575051963,1.37055596461692,0.343762457370758,0.117408007383347,-0.0792070478200912,V
1526529947.05411,-0.183951742701213,1.41112854287963,1.31275925529137,0.333113223314285,0.1197569668293,-0.0912202522158623,V
1526529947.06931,-0.135036838631109,1.42320574365891,1.25497307948639,0.580024003982544,0.370536953210831,-0.194691717624664,V
1526529947.085,-0.100960082375781,1.43481915116356,1.21219010455545,0.765829503536224,0.542939126491547,-0.293812185525894,V
1526529947.0858,-0.0937760451704728,1.4471543557727,1.1958125259195,0.763714969158173,0.544535875320435,-0.305895090103149,V
1526529947.10257,-0.11273211383032,1.4601315625802,1.20501158935221,0.764590442180634,0.546052694320679,-0.318942427635193,V
1526529947.11765,-0.144932005919452,1.47321467572365,1.22687397943423,0.452089697122574,0.679553627967834,-0.207915872335434,V
1526529947.11852,-0.179966655927677,1.48583340000631,1.25205464681898,0.453208595514297,0.68070375919342,-0.220831081271172,V
1526529947.13423,-0.216910426007777,1.4969432154697,1.28077785597004,0.337458729743958,0.717122733592987,-0.0234172753989697,V
1526529947.14931,-0.262939351317988,1.50631699489645,1.32024991995256,0.348870664834976,0.682476997375488,0.0275978595018387,V
1526529947.15035,-0.327530207863488,1.51403378523586,1.37932883321888,0.350373834371567,0.682944476604462,0.0190939828753471,V
1526529947.16427,-0.408560606633353,1.51992723961226,1.45583122559088,0.266828805208206,0.619205117225647,0.043869748711586,V
1526529947.18012,-0.49792120235977,1.52407699158144,1.54207872094814,0.268932849168777,0.619407534599304,0.0382392592728138,V
1526529947.18109,-0.581578508337708,1.52686279354011,1.62363163953701,0.270754665136337,0.619533717632294,0.0339065417647362,V
1526529947.19617,-0.652092562447125,1.52833234562763,1.69223227254636,0.166768029332161,0.521635770797729,0.0586584992706776,V
1526529947.21236,-0.702917052102874,1.52890530217348,1.74128781908555,0.0728182196617126,0.423057645559311,0.0662077963352203,V
1526529947.21319,-0.724801445059737,1.52899037614379,1.76183030268967,0.0734545737504959,0.423061192035675,0.0655440986156464,V
1526529947.22835,-0.718099616729895,1.5285552218405,1.75416349210782,0.0485974587500095,0.324074417352676,0.0800945907831192,V
1526529947.24388,-0.696703924730524,1.52746364421199,1.73266625195869,0.0564841106534004,0.19972962141037,0.0369319804012775,V
1526529947.24485,-0.673022372721396,1.52580301971631,1.70949683019436,0.0567237362265587,0.199656307697296,0.0388781391084194,V
1526529947.26006,-0.64981424316052,1.52374247328966,1.68691674235389,0.0571454130113125,0.199561506509781,0.0411581620573997,V
1526529947.27583,-0.622403953319055,1.52141029235418,1.6599839631318,-0.0174542684108019,0.0905623733997345,0.0396968349814415,V
1526529947.27676,-0.590410215729387,1.51911721619828,1.62864016025024,-0.0174770783632994,0.0904465466737747,0.0424993820488453,V
1526529947.29131,-0.552576635289999,1.51703089789309,1.59154907732817,-0.0743168815970421,0.00847320072352886,0.0264088530093431,V
1526529947.30798,-0.504789011745663,1.51522956803588,1.54425810409745,-0.0991933345794678,-0.0443595983088017,0.0624051988124847,V
1526529947.30892,-0.448897739873446,1.51325730324448,1.48892071722475,-0.101096265017986,-0.0444710738956928,0.0656037479639053,V
1526529947.32319,-0.384641355437307,1.51112127390952,1.42512530780962,-0.0544038377702236,-0.0751290246844292,0.041442234069109,V
1526529947.33975,-0.321738569435256,1.50882589361683,1.36281906308494,-0.0571986995637417,-0.0752685517072678,0.0449132062494755,V
1526529947.34091,-0.270991530286597,1.50654588281274,1.31278819216787,-0.0595950558781624,-0.0754123479127884,0.0480233803391457,V
1526529947.3551,-0.239359654054069,1.50458111231517,1.28148774306344,0.0597237385809422,-0.092462420463562,-0.00632199551910162,V
1526529947.37154,-0.219458558141443,1.50315706602255,1.26158712716266,0.0443464927375317,-0.099775068461895,0.00755599280819297,V
1526529947.3724,-0.205286096347958,1.50188117209463,1.24705895555385,0.0436696149408817,-0.0998621135950089,0.00900408625602722,V
1526529947.38679,-0.194778295194805,1.50069750858516,1.23622672772105,0.0549077689647675,-0.0991661176085472,0.00347040011547506,V
1526529947.40292,-0.19154966692355,1.49999858493271,1.23207677235736,0.0129179321229458,-0.0654323622584343,-0.090650387108326,V
1526529947.40349,-0.191987107973233,1.5000770373582,1.23190148566271,0.0129333771765232,-0.0654268115758896,-0.0907330960035324,V
1526529947.41856,-0.189858876289395,1.50219156227087,1.2307765088483,0.0123876417055726,-0.065279632806778,-0.0927760526537895,V
1526529947.43556,-0.17862116338994,1.50757421051593,1.22141980337183,-0.0657857358455658,-0.0379017814993858,-0.332402229309082,V
1526529947.43612,-0.163362953235846,1.51653495993793,1.20801050603275,-0.0681905150413513,-0.0373757183551788,-0.341064363718033,V
1526529947.45143,-0.174146493796392,1.52788737551048,1.21895961421787,0.210282787680626,0.00217708642594516,-0.193135097622871,V
0,0,0,0,0,0,0,0,0
1526529948.10878,-0.164788712883509,1.51075603587854,1.47596127453422,-0.0939011797308922,0.0335832536220551,-0.0226567946374416,V
1526529948.10962,-0.140920335271437,1.51512024611202,1.45588589997958,-0.0959285944700241,0.0338356196880341,-0.0267524477094412,V
1526529948.11765,-0.130702342876603,1.51760540594344,1.44794341018224,0.00749370735138655,0.0297746621072292,-0.010550569742918,V
1526529948.13524,-0.127313795965411,1.51210525078106,1.44624756816083,0.105378642678261,-0.0674261748790741,0.690903604030609,V
1526529948.13581,-0.13280999254141,1.49983046503294,1.45283081091708,0.107320316135883,-0.0682213678956032,0.70300281047821,V
1526529948.14939,-0.134825781514949,1.48812237524017,1.45621205837126,-0.100319489836693,0.0258813295513391,-0.0167871806770563,V
1526529948.1677,-0.131136472627268,1.47959763806883,1.45426152349135,-0.100167103111744,0.0355171337723732,-0.231273353099823,V
1526529948.1686,-0.128691158545216,1.47440020283543,1.45308236744341,-0.0997238382697105,0.0350303426384926,-0.226112708449364,V
1526529948.18264,-0.131315390387968,1.47242793091662,1.45612063372921,-0.0992163717746735,0.034838579595089,-0.224199429154396,V
1526529948.19691,-0.137963635517998,1.47165989218329,1.46279980934518,-0.0504906177520752,0.0106234541162848,-0.0743295922875404,V
1526529948.19767,-0.145537411384993,1.47110507932068,1.47068941229634,-0.0496684685349464,0.0105683887377381,-0.0738892629742622,V
1526529948.21276,-0.152064962583691,1.470765832152,1.4776355169895,-0.0770510211586952,0.00845937244594097,0.0146049242466688,V
1526529948.2289,-0.154776815054735,1.47059097824221,1.4805292245306,-0.0779009759426117,-0.00580981327220798,0.0399887338280678,V
1526529948.22968,-0.154629009550414,1.47031907439166,1.48089736728182,-0.0778739228844643,-0.00583705073222518,0.0402583181858063,V
1526529948.24458,-0.151609805792081,1.46975880019627,1.47891562295438,-0.0232794694602489,-0.0122410636395216,0.0388719066977501,V
1526529948.26084,-0.151084779257073,1.46923438807432,1.47933028670211,-0.023253295570612,-0.0122940950095654,0.0393956713378429,V
1526529948.26252,-0.15445087435795,1.46893564874226,1.4828379105034,-0.022870272397995,-0.0123244281858206,0.0396373942494392,V
1526529948.27637,-0.158615368379477,1.46894630653177,1.48659352185832,-0.00901066605001688,-0.0226535443216562,0.0120645724236965,V
1526529948.29238,-0.161400075231039,1.46947459844325,1.48942669983758,-0.0268362388014793,-0.0357988215982914,0.0150560215115547,V
1526529948.29323,-0.16230413494123,1.47009251521461,1.49070955221626,-0.0268453322350979,-0.0357365123927593,0.0144345983862877,V
1526529948.30827,-0.158954543265597,1.47051406166991,1.4877335970416,-0.0279307775199413,-0.0383645072579384,0.0324764251708984,V
1526529948.324,-0.154393934774045,1.47092711313078,1.48366313372732,0.0163395777344704,-0.0345543213188648,0.0156468208879232,V
1526529948.32477,-0.149396497039412,1.47122883491966,1.47931523123475,0.0158023685216904,-0.034524280577898,0.0154253346845508,V
1526529948.34022,-0.146279746705519,1.4717059923298,1.47682948380078,0.0154267270117998,-0.0344769656658173,0.0150012355297804,V
1526529948.35591,-0.14584950918311,1.47266132591711,1.47703827800826,0.0183287262916565,-0.0292864739894867,-0.0301073621958494,V
1526529948.3567,-0.145298618885743,1.47441596188675,1.47747829699011,0.0180224720388651,-0.0291160903871059,-0.0318274758756161,V
1526529948.37214,-0.145526862458618,1.47702331875401,1.47881519280663,0.00585750723257661,-0.0223378036171198,-0.0496423318982124,V
1526529948.38883,-0.150576609971267,1.47973498416189,1.48468329055874,-0.000519074848853052,-0.013466339558363,0.0458392053842545,V
1526529948.38974,-0.15567628936149,1.48206945702102,1.49029600900318,-0.000421253818785772,-0.013256766833365,0.0434715412557125,V
1526529948.40363,-0.156848857077617,1.48395078781054,1.49181702225445,-0.026825962588191,0.0114900851622224,0.0590298287570477,V
1526529948.41929,-0.156387546355166,1.48524580575276,1.49174184961787,-0.0270664356648922,0.0116015747189522,0.0577616021037102,V
1526529948.42014,-0.154736419972889,1.48632051162122,1.49035954432323,-0.0273708496242762,0.0116928284987807,0.0567254312336445,V
1526529948.43579,-0.157057441606059,1.48755461085517,1.49283251603565,-0.00448155449703336,0.044755183160305,0.0109857702627778,V
1526529948.45116,-0.165495706104648,1.48884188089594,1.5012997239598,-0.0078303562477231,0.0909887030720711,0.0126900300383568,V
1526529948.45196,-0.176411430760953,1.48999901297552,1.51199580177403,-0.00715219741687179,0.0910827666521072,0.0114026078954339,V
1526529948.46842,-0.190271704188928,1.49132297090808,1.52541829823107,-0.0522155873477459,0.153688743710518,-0.0271608307957649,V
1526529948.48286,-0.205966142258068,1.49310704698037,1.54046974705488,-0.089718334376812,0.252736270427704,-0.0159787107259035,V
1526529948.48448,-0.224512636494331,1.49508411151946,1.55826166988592,-0.0887510105967522,0.252887755632401,-0.0182079169899225,V
1526529948.50178,-0.241417508548021,1.49655526124991,1.57462741016348,-0.0878576189279556,0.25299796462059,-0.0199275873601437,V
1526529948.5155,-0.254844306567111,1.49720392676347,1.58797932638745,-0.125080212950706,0.38929158449173,0.0264125186949968,V
1526529948.51665,-0.260771431766839,1.4971040021524,1.59470286710384,-0.124633118510246,0.389284253120422,0.026397692039609,V
1526529948.53046,-0.25834099343165,1.49669159853735,1.59334631735501,-0.142172306776047,0.512666881084442,0.0104685677215457,V
1526529948.54654,-0.252496359595801,1.49579725605366,1.588526368152,-0.0598639100790024,0.583065330982208,0.0653050020337105,V
1526529948.54738,-0.246814420530678,1.49418788314569,1.58388752947179,-0.0598843842744827,0.582943499088287,0.0669663026928902,V
1526529948.56271,-0.245159509470169,1.49125617505806,1.58323842072551,0.01395960804075,0.610592603683472,0.157158583402634,V
1526529948.57827,-0.249326127504742,1.48646076260997,1.58784663831438,0.0154599063098431,0.610200107097626,0.161709100008011,V
1526529948.57908,-0.259317892348086,1.48019766496427,1.59751876041024,0.0178743414580822,0.609652996063232,0.167527884244919,V
1526529948.59404,-0.282638811246803,1.47329289105219,1.61953730732557,0.00803047511726618,0.617457926273346,0.0679737851023674,V
1526529948.61002,-0.314449445560116,1.46637792325907,1.64876228260338,-0.112202472984791,0.560852766036987,0.0171326156705618,V
1526529948.61083,-0.348717561156298,1.45920929627184,1.67936054789806,-0.106390282511711,0.560080051422119,0.0226678214967251,V
1526529948.62617,-0.376578034438194,1.45099520597973,1.70294503535742,-0.213083893060684,0.432575464248657,0.181986734271049,V
1526529948.6422,-0.390160483485461,1.44081555229151,1.71236128172639,-0.207736909389496,0.431307435035706,0.190720811486244,V
1526529948.64301,-0.385125685881753,1.42892316644783,1.70323410794531,-0.203914627432823,0.429695904254913,0.201887056231499,V
1526529948.65818,-0.366236076812841,1.41621836445112,1.6798201256018,-0.318369895219803,0.221383482217789,0.177062496542931,V
1526529948.67367,-0.344369305455269,1.40317659011503,1.65302956734595,-0.180064842104912,-0.00682843709364533,-0.0109280059114099,V
1526529948.67463,-0.321168926711691,1.39003682227778,1.62491435220473,-0.179637968540192,-0.00910567492246628,0.00261549209244549,V
1526529948.68946,-0.295750478827873,1.37717730972071,1.59415396390477,-0.152187362313271,-0.17466102540493,-0.095574826002121,V
1526529948.70535,-0.269922401238374,1.36486316579162,1.56274954616429,-0.0487453490495682,-0.303493291139603,-0.0221309922635555,V
1526529948.70602,-0.243891713984005,1.35294867459977,1.53079046370663,-0.0510805249214172,-0.305999010801315,-0.00947532337158918,V
1526529948.72162,-0.216806818996946,1.34086178767885,1.49736951443174,-0.0542444251477718,-0.308682560920715,0.00337040540762246,V
1526529948.73805,-0.188185196305356,1.32819107862296,1.46263433324524,0.0566453114151955,-0.396365284919739,0.134855926036835,V
1526529948.73924,-0.158389831213034,1.31467052177597,1.42719182465118,0.0516615584492683,-0.399701982736588,0.149028286337852,V
1526529948.75283,-0.129887717486313,1.29990082385471,1.39332558585195,0.143485262989998,-0.439834445714951,0.144353359937668,V
1526529948.76946,-0.104731011021704,1.28445297884593,1.3627870480667,0.223435536026955,-0.458334714174271,-0.0330355726182461,V
1526529948.77003,-0.0836804043377406,1.26948598099933,1.33595969917937,0.218713700771332,-0.462669372558594,-0.0182010047137737,V
1526529948.78477,-0.0659415814431634,1.2562779463185,1.31241092203343,0.276808768510818,-0.469220519065857,-0.170516103506088,V
1526529948.80246,-0.0512689403425526,1.2446725857776,1.29288054897259,0.272841960191727,-0.472874701023102,-0.159249737858772,V
1526529948.803,-0.0390678603643665,1.2342152697926,1.27676743197701,0.269323289394379,-0.476276695728302,-0.149192348122597,V
1526529948.8169,-0.0284848549117326,1.22497289987555,1.26333146013476,0.264628618955612,-0.46026536822319,-0.139559596776962,V
1526529948.83443,-0.0191260567498593,1.21652760731303,1.25258607568338,0.22146300971508,-0.456722378730774,-0.0850283652544022,V
1526529948.83539,-0.0104445295287074,1.20891773510492,1.24348998287617,0.218526124954224,-0.459389418363571,-0.0778570398688316,V
1526529948.84881,-0.00386247182015743,1.20212485294762,1.23691392209498,0.220004618167877,-0.480507880449295,-0.0486990734934807,V
1526529948.8639,0.000254692738890624,1.19627594478417,1.23288635656084,0.200514122843742,-0.474986970424652,-0.0813784003257751,V
1526529948.86487,0.00101079079641717,1.19199835081138,1.23227423299482,0.20023350417614,-0.476560354232788,-0.0774008557200432,V
1526529948.88056,-0.00219891031935309,1.18927504923024,1.23527961986285,0.201426029205322,-0.47757089138031,-0.0748726949095726,V
1526529948.89597,-0.00927390602627201,1.18771059955196,1.24159150200883,0.0999324545264244,-0.457890838384628,-0.0450702682137489,V
1526529948.89677,-0.0187288479375414,1.18731777360071,1.24990014386437,0.103473030030727,-0.458037734031677,-0.0447554923593998,V
1526529948.91178,-0.027813706912531,1.18828005029219,1.25813299815589,-0.0565600097179413,-0.448278725147247,-0.0483513101935387,V
1526529948.92788,-0.0368651833728937,1.19012621891672,1.26644025384763,-0.138085290789604,-0.455754667520523,0.00419430201873183,V
1526529948.92873,-0.0453378521911048,1.19247650679478,1.27401743375682,-0.135038942098618,-0.454883992671967,0.001884127384983,V
1526529948.94363,-0.0525131955971478,1.19558795029153,1.28026161802501,-0.249258175492287,-0.49388512969017,-0.04965765401721,V
1526529948.96206,-0.0584627155150887,1.19983548687855,1.28502799150078,-0.24731233716011,-0.492336958646774,-0.0537271499633789,V
1526529948.96277,-0.0648597013071427,1.20537137223537,1.28950055426031,-0.245332524180412,-0.490344405174255,-0.0590240508317947,V
1526529948.97547,-0.0722820119649471,1.2125395568895,1.29394491478092,-0.282263606786728,-0.558653473854065,-0.108998358249664,V
1526529948.9915,-0.0803607384212162,1.22173872060461,1.29782603960009,-0.366466104984283,-0.658586442470551,-0.101336821913719,V
1526529948.99249,-0.0887098336375744,1.23238603809154,1.30050465215788,-0.364508926868439,-0.654998242855072,-0.111562944948673,V
1526529949.0071,-0.0950808651023922,1.24416020440193,1.29971813125663,-0.484080046415329,-0.749955475330353,-0.00531270867213607,V
1526529949.02296,-0.0969173227505795,1.25680732381003,1.29306868691876,-0.50705498456955,-0.773515522480011,-0.0261056888848543,V
1526529949.02373,-0.091768293801176,1.27060247243207,1.27875723639411,-0.509843230247498,-0.769345462322235,-0.0390502102673054,V
1526529949.03931,-0.0793137779394962,1.285864045094,1.25675411263648,-0.514670372009277,-0.764943957328796,-0.0533025562763214,V
1526529949.05471,-0.062051519181456,1.30269660486335,1.22990345797056,-0.245001956820488,-0.669406235218048,-0.133483216166496,V
1526529949.05549,-0.0422242532660528,1.32116955061414,1.20032090313479,-0.251000761985779,-0.664677560329437,-0.151050791144371,V
1526529949.07135,-0.020812831618658,1.34081584485954,1.16880322859636,0.00533921271562576,-0.475212216377258,-0.108058869838715,V
1526529949.08686,0.00206483599508954,1.360697482641,1.13504021853444,0.200710728764534,-0.20268426835537,0.0722493678331375,V
1526529949.08765,0.0262182347030926,1.37952332477821,1.1000029618089,0.196157604455948,-0.198931559920311,0.0537367351353168,V
1526529949.10301,0.0544499770236736,1.39592326213132,1.0618799386646,0.219336837530136,0.0971753895282745,0.153431102633476,V
1526529949.11992,0.0887360590425157,1.40973572737067,1.01912453330901,0.214594036340714,0.0994845107197762,0.139440029859543,V
1526529949.12087,0.129940408646026,1.42137741030117,0.971559394121336,0.209516540169716,0.101284503936768,0.127314388751984,V
1526529949.1365,0.178050999433379,1.43100794827957,0.91838373994871,0.186366707086563,0.351924568414688,0.0594025291502476,V
1526529949.15014,0.228454190494058,1.4400727628933,0.862165045586704,0.28606128692627,0.536633849143982,-0.14519102871418,V
1526529949.15113,0.279757146082305,1.44969189480576,0.804506250285437,0.282224327325821,0.537841856479645,-0.156043872237206,V
1526529949.16741,0.331601803138818,1.46000289700381,0.746059257540515,0.257277995347977,0.647906184196472,-0.104944467544556,V
1526529949.1824,0.390120043274324,1.46970907985213,0.681123627988051,0.0820596367120743,0.716483175754547,0.0815071910619736,V
1526529949.18443,0.457550408198751,1.47752175948494,0.60803670512619,0.0792931318283081,0.717241227626801,0.0717332437634468,V
1526529949.19772,0.52842116362618,1.48267583213857,0.533023002453673,0.0760673433542252,0.717708051204681,0.0641772076487541,V
1526529949.21412,0.599354367026216,1.48508526762866,0.45928215979257,0.0253324136137962,0.708380460739136,0.0824495255947113,V
1526529949.2154,0.65913280031985,1.48552312115333,0.397025454457189,0.0214629247784615,0.70841783285141,0.0790933445096016,V
1526529949.22941,0.704941906642132,1.48563305021714,0.348332577846714,0.140072196722031,0.657294988632202,-0.109011448919773,V
1526529949.24552,0.748805732143843,1.4863780477749,0.301144829342869,0.185687035322189,0.570093095302582,-0.132984757423401,V
1526529949.24635,0.786290759262431,1.48739139901056,0.26043105200955,0.184127375483513,0.570177972316742,-0.135892689228058,V
1526529949.26173,0.815300195532137,1.48846091866104,0.228246518955867,0.18322092294693,0.570266544818878,-0.138358429074287,V
1526529949.27715,0.835649992874593,1.48928920972509,0.205033649000507,0.169606164097786,0.459433436393738,-0.0678763315081596,V
1526529949.27812,0.849348371960176,1.48977038709362,0.189109419583726,0.169223934412003,0.459472477436066,-0.0690254271030426,V
1526529949.29293,0.855014457328642,1.48994213253666,0.181832880638775,0.14425565302372,0.363355994224548,-0.0281774122267962,V
1526529949.30905,0.855802873085775,1.48975959113723,0.179711103520867,0.122729457914829,0.271971613168716,0.0134892659261823,V
1526529949.30986,0.851378919099103,1.48944394130386,0.183097470991715,0.122728191316128,0.271946012973785,0.0139664653688669,V
1526529949.32494,0.839882645424436,1.4888775596184,0.193731988703022,0.0976589620113373,0.183459892868996,0.0612918399274349,V
1526529949.34143,0.823802569296771,1.48796017262831,0.209092906498989,0.0978743210434914,0.183384403586388,0.062885619699955,V
1526529949.34225,0.805304533362474,1.48696329301037,0.227254619616913,0.0982082635164261,0.183301419019699,0.0646872892975807,V
1526529949.35696,0.782078239394146,1.48580841672832,0.250204473473603,0.0697387680411339,0.115989089012146,0.0623736381530762,V
1526529949.3725,0.754488552879982,1.4848522068434,0.277490413553189,0.0679321736097336,0.0518205501139164,0.0435922928154469,V
1526529949.373,0.727633393664676,1.48416683478347,0.303890520506563,0.0691786408424377,0.0517614856362343,0.0456583201885223,V
1526529949.38811,0.701556565719902,1.48353283581973,0.328939141357457,0.0150247504934669,-0.00903880782425404,0.0555538050830364,V
1526529949.40447,0.676714903263015,1.48288531489812,0.352735892688393,0.0038558014202863,-0.0465252585709095,0.0719749629497528,V
1526529949.40579,0.651690660819554,1.48217146093773,0.376512418334479,0.00515446159988642,-0.0465881861746311,0.0738946199417114,V
1526529949.42033,0.630344862908617,1.48122230912651,0.396887090455066,0.00611144490540028,-0.0466726459562778,0.0757881253957748,V
1526529949.43667,0.620480032662155,1.48135764452377,0.40750515247102,-0.0272897090762854,-0.0382224358618259,-0.0707623288035393,V
1526529949.43781,0.637754902859057,1.48391581841953,0.391816218619845,-0.0270200651139021,-0.0379972010850906,-0.0737176015973091,V
0,0,0,0,0,0,0,0,0
1526529950.23074,-0.0536885097074775,1.4812751439333,1.36004342012789,-0.0172971896827221,-0.0259159673005342,0.0107511142268777,V
1526529950.23407,-0.036595798202935,1.48284706548777,1.34426014325858,-0.018881019204855,-0.0257766656577587,0.00925538409501314,V
1526529950.24609,-0.029464603581081,1.47993323537492,1.33695022508578,0.101336508989334,-0.0643058717250824,0.372299671173096,V
1526529950.26199,-0.0368891193749251,1.47388660446981,1.34453007432711,0.0233286432921886,-0.0317611657083035,0.0284091979265213,V
1526529950.26277,-0.0496190085679725,1.4673404362275,1.35717899561944,0.0248822551220655,-0.0324158817529678,0.0348612554371357,V
1526529950.27863,-0.062613688379115,1.46185777157828,1.37031005371837,0.0265632458031178,-0.0329970307648182,0.0402270741760731,V
1526529950.29387,-0.0756522809135174,1.45792029280818,1.38288076710412,-0.0146345011889935,-0.0229347832500935,-0.0803736671805382,V
1526529950.29479,-0.087400602688188,1.45560402148894,1.39405339512877,-0.0131147410720587,-0.0231983456760645,-0.0781889855861664,V
1526529950.31025,-0.0973879748463279,1.4550319672782,1.40378110791464,-0.0407403148710728,-0.0026191167999059,-0.113404393196106,V
1526529950.32561,-0.106943515446399,1.45561348691353,1.4135845896151,-0.00352542311884463,-0.0119515303522348,0.0105424840003252,V
1526529950.32639,-0.117551280753634,1.45640850735359,1.42438624965326,-0.00240659527480602,-0.0118604730814695,0.00962158944457769,V
1526529950.34163,-0.126469705705894,1.45710506229382,1.43321850800288,-0.0495944805443287,-0.00726460944861174,0.0258094854652882,V
1526529950.35741,-0.132320639891241,1.45775191385711,1.43963267474839,-0.0490210577845573,-0.00719143403694034,0.0250867567956448,V
1526529950.35819,-0.133964032008321,1.45874898372487,1.44246617137931,-0.0489696450531483,-0.00707945460453629,0.0240802615880966,V
1526529950.37371,-0.133180116841143,1.46013956269005,1.4427070814372,-0.0508727133274078,-0.00515491096302867,-0.00794795900583267,V
1526529950.38976,-0.134813305198474,1.46155726721857,1.44519210431943,-0.0161848869174719,0.00436954526230693,0.0408940389752388,V
1526529950.39076,-0.135041402853503,1.4629371516689,1.44651470332547,-0.016344927251339,0.00451903650537133,0.0395314209163189,V
1526529950.40498,-0.133790680896952,1.46406414297209,1.44639113581185,-0.0151324588805437,0.00645552156493068,0.0868245884776115,V
1526529950.42167,-0.133972500098105,1.46475387296942,1.44741603315085,-0.0152048710733652,0.00652876170352101,0.0861423164606094,V
1526529950.42244,-0.132900429998489,1.46501486029643,1.44663868413021,-0.0153517238795757,0.00655635166913271,0.08590018004179,V
1526529950.43638,-0.132343884380216,1.46504076495965,1.44609913184579,-0.0071125878021121,0.00658960407599807,0.101858362555504,V
1526529950.45258,-0.133295100261348,1.46521344388616,1.44702892480259,-0.000245723320404068,0.00804214365780354,0.0484216995537281,V
1526529950.45338,-0.133528354793731,1.46571987506486,1.44742035319363,-0.000288408278720453,0.0080953873693943,0.047919288277626,V
1526529950.46895,-0.132421147826931,1.46695295179916,1.4465675145954,-0.0153664574027061,0.00277657224796712,0.0110592776909471,V
1526529950.48448,-0.130979619591604,1.46841475875196,1.44545390723327,0.0143553214147687,0.0130588719621301,0.0915617495775223,V
1526529950.48528,-0.130036566852305,1.46957013024183,1.4447155653539,0.014110716059804,0.0131762903183699,0.0904346108436584,V
1526529950.5028,-0.129573292812852,1.47012972538551,1.44445789033576,0.0139923570677638,0.0132326828315854,0.0898885875940323,V
1526529950.51609,-0.131425223418541,1.47035926100901,1.44668284921834,0.0182210560888052,0.0255390498787165,0.058754175901413,V
1526529950.51717,-0.133510558850945,1.47065052141718,1.44935978844276,0.0183897409588099,0.0255682114511728,0.0584393404424191,V
1526529950.5346,-0.134638904644599,1.47107160705636,1.45087536757444,0.0107090920209885,0.0514280945062637,0.0202435646206141,V
1526529950.54833,-0.136925985150293,1.47164146093997,1.45298922221737,0.0128867151215672,0.0941940173506737,-0.00082628516247496,V
1526529950.54924,-0.141992109515185,1.47255713778195,1.45719881122672,0.013254402205348,0.0942842438817024,-0.00179804849904031,V
1526529950.56364,-0.150115975821058,1.47344003499604,1.46428058318402,-0.00700849294662476,0.136713594198227,0.0122623592615128,V
1526529950.58027,-0.159291009966963,1.47441256753836,1.47257693486219,-0.00628084829077125,0.136807650327682,0.0111692203208804,V
1526529950.58113,-0.166510517277832,1.47573043607607,1.4788482397331,-0.00581270782276988,0.136933609843254,0.0097628515213728,V
1526529950.59555,-0.170751167295937,1.47742858186417,1.48202861989106,-0.0850030854344368,0.216118633747101,-0.0195586252957582,V
1526529950.61201,-0.173381060643399,1.47886879180745,1.48340787122945,-0.091112419962883,0.334202319383621,0.0572034120559692,V
1526529950.61308,-0.173743195256559,1.47906110578629,1.48254016115293,-0.0911127850413322,0.334219962358475,0.0570090524852276,V
1526529950.62728,-0.174194439744622,1.47784855715725,1.48192722073699,-0.112164080142975,0.472215443849564,0.0916840508580208,V
1526529950.64391,-0.172526061718294,1.47533119513447,1.47946605388843,-0.12857948243618,0.565255641937256,0.0767694711685181,V
1526529950.64475,-0.168785869494961,1.47159672285226,1.47501692327492,-0.128306448459625,0.564892709255219,0.0804939940571785,V
1526529950.65918,-0.163665171257639,1.46693864814994,1.4696036357355,-0.128051534295082,0.564420580863953,0.0851500630378723,V
1526529950.67495,-0.155599800144888,1.46155648121317,1.46240815159256,-0.11825155466795,0.620137870311737,0.0718932002782822,V
1526529950.67577,-0.142762103379199,1.45489621323562,1.45190883225376,-0.118693992495537,0.619389712810516,0.0786519944667816,V
1526529950.69082,-0.128697833829458,1.44632772945549,1.44098558016198,-0.00993020832538605,0.645050048828125,0.18777222931385,V
1526529950.7067,-0.117076224518205,1.43599185544407,1.43208332684838,0.0646946951746941,0.66968435049057,0.138145729899406,V
1526529950.70752,-0.112028279754616,1.42409186074768,1.42843839287414,0.0653378963470459,0.668014883995056,0.149931654334068,V
1526529950.72268,-0.119456888419633,1.41073610800105,1.43513693197245,0.175884380936623,0.583088636398315,0.0420156568288803,V
1526529950.73892,-0.141428859376889,1.39694719507302,1.45425450629371,0.181273013353348,0.580797255039215,0.0550214871764183,V
1526529950.73965,-0.17108134403855,1.38326255592235,1.47976747309224,0.188631311058998,0.578337967395782,0.0674885362386703,V
1526529950.75485,-0.20068667540509,1.36974277519657,1.50446550395284,0.0169971156865358,0.409162759780884,0.0197141282260418,V
1526529950.77046,-0.223698719097424,1.3557566302396,1.52197151474513,-0.18192620575428,0.2065669298172,0.136154726147652,V
1526529950.77156,-0.238024193484984,1.34100061781993,1.53042481007283,-0.175556987524033,0.203311949968338,0.149441882967949,V
1526529950.78632,-0.245613431195477,1.32574435182782,1.53208700676593,-0.168518379330635,-0.0403428114950657,0.12772074341774,V
1526529950.80264,-0.24802832396727,1.30968039101414,1.52911646625673,-0.163583025336266,-0.226722821593285,0.103759095072746,V
1526529950.80319,-0.246912836507875,1.29267895185188,1.52301918108299,-0.159857034683228,-0.231251314282417,0.119719676673412,V
1526529950.81785,-0.243146232548141,1.27515680690168,1.51402416459179,-0.156814128160477,-0.23620930314064,0.136282026767731,V
1526529950.83504,-0.237988867924271,1.25825240573792,1.50286805526429,-0.243139982223511,-0.397658199071884,-0.0690909773111343,V
1526529950.83641,-0.231265925670408,1.24286320949403,1.48926362062431,-0.241802513599396,-0.402502566576004,-0.0543926022946835,V
1526529950.84971,-0.221472283393274,1.22916351236709,1.47281295303193,-0.240081042051315,-0.554205298423767,-0.163360849022865,V
1526529950.86808,-0.20628186921584,1.21637674539099,1.45245996915436,-0.164589315652847,-0.635928153991699,-0.101809367537498,V
1526529950.86889,-0.186369403222261,1.20406846478593,1.42831486453149,-0.169233039021492,-0.64027065038681,-0.0891440808773041,V
1526529950.88177,-0.164107775913642,1.19276100961799,1.40168593301005,-0.0036649601534009,-0.66844779253006,-0.279586285352707,V
1526529950.89814,-0.142604772692795,1.18318346546114,1.37565273341495,-0.0102456770837307,-0.672025382518768,-0.269579887390137,V
1526529950.90129,-0.123881069568677,1.17481728368589,1.35225376964267,-0.0163045935332775,-0.67521995306015,-0.260966747999191,V
1526529950.91337,-0.110043366201552,1.16722201469421,1.33360849207932,0.218878477811813,-0.680663347244263,-0.2098718136549,V
1526529950.92926,-0.102099915259497,1.1602779490584,1.32113985882551,0.269664406776428,-0.629381120204926,-0.20573103427887,V
1526529950.93029,-0.097672488277993,1.15441562781343,1.31255576308982,0.268429815769196,-0.631736397743225,-0.200212076306343,V
1526529950.94508,-0.0937175702318844,1.15087593086459,1.30541746395777,0.156178340315819,-0.560221493244171,-0.273926109075546,V
1526529950.96151,-0.0896634513629456,1.14919348311245,1.29937392043938,0.201224535703659,-0.494304090738297,-0.112470462918282,V
1526529950.96237,-0.0863380664908309,1.14860363517084,1.2947430914194,0.199915379285812,-0.494545638561249,-0.111814744770527,V
1526529950.97757,-0.0846075903704642,1.14899216305011,1.2924765797994,0.19917893409729,-0.494386494159698,-0.112107381224632,V
1526529950.99272,-0.0858285819889232,1.15052002890999,1.29321888940659,0.20653073489666,-0.408831626176834,-0.0704789236187935,V
1526529950.99348,-0.0901765730101697,1.15331013547825,1.29651423061193,0.208068370819092,-0.407696783542633,-0.0731733739376068,V
1526529951.00912,-0.0975914508589878,1.15692462549601,1.30274639032592,0.175979867577553,-0.324175447225571,-2.49765053013107e-05,V
1526529951.02447,-0.107486350483979,1.16075273347242,1.31120879298916,0.129909843206406,-0.241099685430527,0.111558623611927,V
1526529951.02525,-0.119490110438651,1.16449397046686,1.32209728096668,0.134254977107048,-0.23961466550827,0.107607319951057,V
1526529951.03996,-0.132495445798679,1.1682383816761,1.3342150651801,0.138899356126785,-0.238141253590584,0.103549279272556,V
1526529951.0563,-0.145958914217316,1.17182650213683,1.34665274720378,0.0245627984404564,-0.174744993448257,0.148361474275589,V
1526529951.05707,-0.158815884127801,1.17505765550649,1.35867491558579,0.029028233140707,-0.173494592308998,0.144661411643028,V
1526529951.07214,-0.170380060304967,1.17795406507765,1.36977714324102,-0.0465106256306171,-0.157931864261627,0.189635366201401,V
1526529951.08824,-0.180765118788354,1.18068651920752,1.38036671980866,-0.0447287447750568,-0.184843391180038,0.192254707217216,V
1526529951.08935,-0.191052915748967,1.18308729513614,1.39140771546925,-0.0413056761026382,-0.183933064341545,0.189350470900536,V
1526529951.10405,-0.202714178604389,1.18550061020273,1.40337403552822,-0.117128804326057,-0.298959642648697,0.158313930034637,V
1526529951.1206,-0.217717530247485,1.18815294201293,1.41718454108893,-0.11214542388916,-0.297966063022614,0.154736146330833,V
1526529951.12138,-0.235960698254392,1.19145384610014,1.43230071305375,-0.106224827468395,-0.296738654375076,0.150224953889847,V
1526529951.13579,-0.257008023557228,1.19625449925883,1.44758041870375,-0.28901007771492,-0.482395350933075,0.0843749195337296,V
1526529951.15169,-0.278377149972976,1.2026342957946,1.46075186545145,-0.540291368961334,-0.709740281105042,0.0843272432684898,V
1526529951.15249,-0.296341331583576,1.21049935873808,1.46899969510307,-0.536237359046936,-0.706938564777374,0.0754661113023758,V
1526529951.16856,-0.306563180692084,1.21987663585277,1.4689824120959,-0.777605950832367,-0.857772290706635,0.0308286659419537,V
1526529951.18328,-0.305282301923509,1.2309402208088,1.45818237921315,-0.949169278144836,-0.916724920272827,0.0282193478196859,V
1526529951.18434,-0.286370028149343,1.24353339251048,1.43161845357376,-0.958560883998871,-0.912601888179779,0.0186428390443325,V
1526529951.20228,-0.241395957759169,1.25642882520657,1.38267216707952,-0.975441753864288,-0.908535420894623,0.0105307782068849,V
1526529951.21581,-0.168405280939355,1.2681415394846,1.30984624984698,-0.82635509967804,-0.805888414382935,0.0881961807608604,V
1526529951.21667,-0.0735606900086957,1.27726285154326,1.21737923990105,-0.855047643184662,-0.803209543228149,0.0829111933708191,V
1526529951.23106,0.0300721008543946,1.28438021677614,1.11473609979903,-0.318598955869675,-0.432400047779083,-0.144094735383987,V
1526529951.24696,0.13201372496868,1.29126642591257,1.00996375951987,0.281721562147141,-0.00208684802055359,-0.47991481423378,V
1526529951.24778,0.225899370024534,1.2998913097227,0.908388188018424,0.258100301027298,0.00025701048434712,-0.492613404989243,V
1526529951.26261,0.310293323695092,1.31088139763093,0.813182428251128,0.704457104206085,0.347698479890823,-0.329524129629135,V
1526529951.27902,0.385421956635153,1.32265642861702,0.727455171218492,0.690594613552094,0.350657552480698,-0.346665352582932,V
1526529951.28029,0.454203379650157,1.33327732196423,0.651489553242668,0.679694890975952,0.353211343288422,-0.362813323736191,V
1526529951.29443,0.518532570567716,1.34230989880406,0.584178662719466,0.661898136138916,0.578441500663757,-0.0386377573013306,V
1526529951.31089,0.579937667475992,1.35107071745207,0.52327062862335,0.570428192615509,0.673406004905701,-0.0341978371143341,V
1526529951.31218,0.635439435867225,1.35980411974871,0.469333191622327,0.565561771392822,0.675272345542908,-0.0479704923927784,V
1526529951.32625,0.683185154554235,1.36882406066925,0.42133262488784,0.466292768716812,0.678723752498627,0.0469526834785938,V
1526529951.3424,0.720257677613931,1.37858365880158,0.380352127572284,0.449500381946564,0.672837615013123,0.116379529237747,V
1526529951.34352,0.742223154874213,1.38938602967274,0.351148587025401,0.453551650047302,0.674843907356262,0.105755008757114,V
1526529951.35809,0.752745570053408,1.40131664767316,0.332257434441781,0.460190415382385,0.67692631483078,0.0958910509943962,V
1526529951.37397,0.75457585267873,1.41316236322345,0.322733216593681,0.216033175587654,0.628516376018524,0.143149182200432,V
1526529951.37478,0.75204660517361,1.4235057850586,0.319669694834527,0.223306745290756,0.63008725643158,0.135954722762108,V
1526529951.38979,0.745511894471175,1.4318385470299,0.322367929684024,0.0264179147779942,0.580311477184296,0.147179841995239,V
1526529951.40578,0.730593876751738,1.43806189746726,0.334378709048702,-0.0259527508169413,0.506416738033295,0.0720479041337967,V
1526529951.40642,0.711492213888403,1.44274533694138,0.351008472915976,-0.0210217889398336,0.50702565908432,0.070199728012085,V
1526529951.42147,0.690170952767111,1.44669453758196,0.369821404100966,0.00310007249936461,0.423064857721329,0.000239201122894883,V
1526529951.43798,0.664610763184556,1.45018995579219,0.39246369074604,0.00770506402477622,0.423491477966309,-0.000508693570736796,V
1526529951.43915,0.636651110259563,1.45336423957877,0.41713643628391,0.0122554516419768,0.423868387937546,-0.00100561382714659,V
1526529951.45384,0.608938866744721,1.45587320039713,0.441299608803485,-0.0378964208066463,0.351588428020477,0.00867077242583036,V
1526529951.46935,0.584621183845421,1.45741430864308,0.462311054678555,-0.0806891992688179,0.262805223464966,0.0372203104197979,V
1526529951.47001,0.565372165724731,1.4581043423967,0.478918896818796,-0.0784942954778671,0.26288303732872,0.0378257185220718,V
1526529951.48527,0.552983534078679,1.45790210095856,0.489470494386728,-0.0720630586147308,0.190533623099327,0.0770505890250206,V
1526529951.50255,0.545025434742983,1.4566154886105,0.496376328630291,0.0256341844797134,0.134494915604591,0.0729505345225334,V
1526529951.50336,0.536323726687493,1.45462144148873,0.5046496073619,0.0254720132797956,0.134265750646591,0.0751635357737541,V
1526529951.51722,0.525661539854498,1.45231901809917,0.515075888032799,0.0253903456032276,0.133996233344078,0.0777672603726387,V
1526529951.53538,0.514053283093355,1.45029346382762,0.526146505164553,0.0479006357491016,0.0890465304255486,0.0221708752214909,V
1526529951.53593,0.502510426190967,1.44851836285383,0.536913285220067,0.0482641533017159,0.0888315811753273,0.024390384554863,V
1526529951.54898,0.489970081209745,1.44668424409263,0.548623840120255,0.0620583035051823,0.0417159348726273,0.0556248612701893,V
1526529951.56527,0.477190785162679,1.44463944800389,0.560772993065582,0.0164608042687178,0.00886795483529568,0.0229758080095053,V
1526529951.56833,0.467259632275035,1.44242248135431,0.570190445434248,0.0165830701589584,0.00858657341450453,0.0255075059831142,V
1526529951.58064,0.459375477330179,1.4406938025715,0.577817980712056,0.016725916415453,0.00836378335952759,0.0274951420724392,V
1526529951.59665,0.452924109084323,1.4396906196478,0.584355291687301,0.0398692116141319,-0.0212926212698221,-0.0166672393679619,V
1526529951.59742,0.444273535923935,1.43892286547515,0.593058134660978,0.0405610725283623,-0.0213932823389769,-0.0154895298182964,V
1526529951.61229,0.434549609920572,1.43808579700187,0.602594167369776,0.0413688868284225,-0.0378153435885906,0.0557533241808414,V
1526529951.62855,0.425306953292788,1.43720741132631,0.611388297790168,-0.000649015244562179,-0.0609574653208256,0.0341984592378139,V
1526529951.62952,0.417111352524535,1.4364558430852,0.618932209590021,4.541171801975e-05,-0.0610578507184982,0.0353257432579994,V
1526529951.644,0.142735932769333,1.3989548370371,0.890046409455818,-0.0240499656647444,-0.0669287666678429,-0.0519486106932163,V
1526529951.66045,0.146285424351984,1.40061922281259,0.88804999713742,-0.0244115218520164,-0.0666455253958702,-0.0536586083471775,V
1526529951.66138,0.162292527133935,1.40597670757679,0.875104850320713,-0.0262366514652967,-0.065752349793911,-0.0592882968485355,V
1526529951.67647,0.192478715394042,1.41560776233522,0.846819189330223,-0.0711933597922325,-0.0517972595989704,-0.321081548929214,V
0,0,0,0,0,0,0,0,0
1526529952.3264,-0.109758555757624,1.38569561496943,1.46481667848571,-0.00893847458064556,-0.00724036106839776,-0.00920062605291605,V
1526529952.32707,-0.0907043276962897,1.39088726266583,1.44816122117044,-0.0128901153802872,-0.00629811221733689,-0.0139341559261084,V
1526529952.34291,-0.0817969684319173,1.39332133905092,1.43948484408465,0.285909116268158,-0.0896667391061783,0.755117118358612,V
1526529952.35932,-0.0828974767525412,1.38590037274094,1.43969544202701,0.286707162857056,-0.0910039693117142,0.76237553358078,V
1526529952.36016,-0.0844397825369621,1.37121845782484,1.44173829758717,0.288205146789551,-0.0938089936971664,0.776711821556091,V
1526529952.37515,-0.0828778398658765,1.35892947388218,1.44067538019057,0.0270516071468592,0.00477017369121313,0.28405699133873,V
1526529952.39062,-0.0772212023141157,1.35324419644645,1.43753283398518,-0.00169019226450473,0.0260350462049246,-0.287152975797653,V
1526529952.39139,-0.0734437048686487,1.35166372981404,1.43621628008809,-0.00238999724388123,0.0256926976144314,-0.285552829504013,V
1526529952.40647,-0.0741911664061795,1.35202028211322,1.43857948440313,0.0777175650000572,-0.00456432765349746,-0.00696596782654524,V
1526529952.42228,-0.0801864849637098,1.35262809872065,1.44536356356032,0.0144837070256472,-0.00942221470177174,0.0819418430328369,V
1526529952.42305,-0.0878402784047877,1.35330798493637,1.45337276615464,0.0160762239247561,-0.00927528459578753,0.0811415687203407,V
1526529952.43891,-0.0946416700135215,1.35416069990439,1.45986029315396,0.0174590162932873,-0.00909164268523455,0.0801788717508316,V
1526529952.45417,-0.0988610591839764,1.35495320963831,1.46381046857921,-0.0364327058196068,-0.0173444543033838,0.110738836228848,V
1526529952.45493,-0.102748170122652,1.35544000680386,1.46787341343518,-0.0356532000005245,-0.0172403119504452,0.110182039439678,V
1526529952.46959,-0.108063230167398,1.35531272713504,1.47385239267383,0.0319112204015255,-0.0241492334753275,0.135485216975212,V
1526529952.48575,-0.114175473994584,1.35489338084274,1.48044717404463,-0.0181501172482967,-0.0144428415223956,0.0776112750172615,V
1526529952.48665,-0.120315572532915,1.35478431275681,1.48680687448826,-0.0168309714645147,-0.0144662130624056,0.0775631666183472,V
1526529952.50227,-0.126362348031871,1.35503359450529,1.49283279732186,-0.0364647470414639,-0.0258263871073723,0.0598586983978748,V
1526529952.51855,-0.131924577340302,1.35588873102821,1.49846822071442,-0.0353937223553658,-0.025643665343523,0.0588772110641003,V
1526529952.51962,-0.136470419703952,1.35722932129733,1.50324827902286,-0.0346112176775932,-0.0253586545586586,0.0574497431516647,V
1526529952.53498,-0.139808465683435,1.35854783438004,1.506870941082,-0.0284443087875843,-0.0242713317275047,0.0772095769643784,V
1526529952.5494,-0.142178952185457,1.35956956483128,1.50936301503941,-0.00839235074818134,-0.00541036622598767,0.11263433098793,V
1526529952.55047,-0.145289849702617,1.36018948498651,1.5126080021844,-0.00783460959792137,-0.00528058176860213,0.111941114068031,V
1526529952.56803,-0.149087896536745,1.36084022141276,1.51693249786426,-0.0295741502195597,0.0296758059412241,0.0417220592498779,V
1526529952.58133,-0.153528598964238,1.3619780888507,1.52199972295841,-0.0424402542412281,0.0678304135799408,0.0341654941439629,V
1526529952.5825,-0.157599481028595,1.36351671154552,1.52633251873337,-0.0418428145349026,0.0681482180953026,0.0325479544699192,V
1526529952.59702,-0.163895091889078,1.36550336933529,1.53220078831678,-0.0408811680972576,0.0685551390051842,0.0304221026599407,V
1526529952.61318,-0.172690519945709,1.36790537111481,1.54005305189654,-0.0500157438218594,0.124019391834736,0.0279419459402561,V
1526529952.61399,-0.183780975361538,1.37044438167936,1.54958940590343,-0.0482710115611553,0.124527849256992,0.0251000560820103,V
1526529952.62925,-0.196812021204905,1.37283422308054,1.56050140458202,-0.116479806602001,0.210449874401093,0.0643195882439613,V
1526529952.64502,-0.210505822424508,1.37495267342566,1.57145511051255,-0.22267484664917,0.318484544754028,0.12448737770319,V
1526529952.64584,-0.222851678315452,1.37656556276405,1.58027566870538,-0.220678314566612,0.318797141313553,0.122427701950073,V
1526529952.66082,-0.233033237770809,1.37761610593793,1.58668068061312,-0.219002053141594,0.318999379873276,0.120980598032475,V
1526529952.67677,-0.240175880050343,1.37780935739699,1.59067435457059,-0.258119404315948,0.430761307477951,0.143042713403702,V
1526529952.67759,-0.244799028566995,1.37691337084355,1.59276218859411,-0.257045567035675,0.43058905005455,0.143682867288589,V
1526529952.69226,-0.246801881350539,1.37489577685713,1.59312109019251,-0.230781808495522,0.513587594032288,0.192017167806625,V
1526529952.70851,-0.246367341268051,1.37169596470561,1.59175448397254,-0.20643225312233,0.576756775379181,0.272259652614594,V
1526529952.70959,-0.242022495441173,1.36714244052807,1.5866583847788,-0.206196829676628,0.575845956802368,0.276798874139786,V
1526529952.72412,-0.232975339471831,1.36131487766942,1.57657269685614,-0.16155344247818,0.614964425563812,0.335925310850143,V
1526529952.74091,-0.219048538762986,1.35335464615315,1.56111153303561,0.0583839602768421,0.650280654430389,0.36952805519104,V
1526529952.74176,-0.204990788857297,1.3427673126583,1.54540976066343,0.0575210750102997,0.647941946983337,0.380275785923004,V
1526529952.75608,-0.194320143430509,1.33002395626978,1.53313644001145,0.0575502440333366,0.644982218742371,0.392915725708008,V
1526529952.77236,-0.18924254410368,1.31587656192248,1.52563752355582,0.19056399166584,0.556779623031616,0.264709889888763,V
1526529952.77286,-0.190825357693621,1.30027956955395,1.52412552879806,0.193812668323517,0.55272901058197,0.279422760009766,V
1526529952.78767,-0.197861347187882,1.2843803670337,1.52660114052955,0.133843079209328,0.416553229093552,0.108928345143795,V
1526529952.80316,-0.208691941468308,1.26913786913533,1.53030230455422,-0.0393979847431183,0.192165017127991,-0.0306769963353872,V
1526529952.8038,-0.220385235114008,1.2549493841905,1.53352898042491,-0.0330485329031944,0.187853589653969,-0.0182261187583208,V
1526529952.81971,-0.229670089370554,1.24134764805257,1.53459813000134,-0.0273004658520222,0.183540791273117,-0.00630860216915607,V
1526529952.83563,-0.233861061020668,1.22758562990528,1.53148120384123,-0.155462473630905,-0.0478991642594337,0.0970358699560165,V
1526529952.83619,-0.232111071626035,1.21341824535264,1.52337558703801,-0.15297444164753,-0.0527610071003437,0.1101218983531,V
1526529952.8517,-0.223213497459134,1.19914632479446,1.50856813001896,-0.27939772605896,-0.255495935678482,0.125811338424683,V
1526529952.8684,-0.206695791276471,1.18459655016805,1.48655991202252,-0.191999286413193,-0.403318971395493,0.157685130834579,V
1526529952.86916,-0.184949412529572,1.16915316244088,1.45975053597321,-0.197411358356476,-0.409246265888214,0.173296138644218,V
1526529952.88388,-0.160233097581968,1.15363359293894,1.43008419878791,-0.0663985833525658,-0.481036752462387,-0.0375372767448425,V
1526529952.90142,-0.134606160929962,1.13853543892218,1.39907129682606,-0.0748227536678314,-0.487257987260818,-0.0223799385130405,V
1526529952.90286,-0.109959749615986,1.1232465908684,1.36865083939879,-0.0835523679852486,-0.493768751621246,-0.00737099582329392,V
1526529952.91495,-0.0864353984335514,1.10780144921527,1.33974437607451,0.133054241538048,-0.538569688796997,-0.0238944962620735,V
1526529952.93064,-0.064231946503235,1.09260229938833,1.31316554020279,0.272198230028152,-0.55954498052597,-0.150010094046593,V
1526529952.9317,-0.0438765625269313,1.07885695228495,1.28946596374183,0.263378351926804,-0.565953969955444,-0.137356087565422,V
1526529952.94665,-0.0275689772862235,1.06728179046262,1.27021134153359,0.457010865211487,-0.584465503692627,-0.249381199479103,V
1526529952.96254,-0.0169867199473894,1.05763044035846,1.25635224399711,0.459785550832748,-0.575567483901978,-0.236595794558525,V
1526529952.96359,-0.0118213138342754,1.04996436554309,1.24718020376209,0.457328706979752,-0.579356610774994,-0.229895576834679,V
1526529952.97872,-0.0104751427844431,1.0439655217304,1.24202621972552,0.456713289022446,-0.582357227802277,-0.224693953990936,V
1526529952.99434,-0.0113261881195188,1.0393163499902,1.23982546472868,0.367510735988617,-0.58362078666687,-0.145673349499702,V
1526529952.99529,-0.0140246860564934,1.03626373088019,1.24009902805683,0.368915110826492,-0.58517187833786,-0.143061771988869,V
1526529953.01029,-0.0188809609260522,1.03459132091987,1.2427438426805,0.281846821308136,-0.580699741840363,-0.154298603534698,V
1526529953.02596,-0.024757358386734,1.03442403909452,1.24723322911949,0.188645109534264,-0.559392392635345,-0.156524419784546,V
1526529953.02674,-0.0313105005816727,1.03590557961202,1.25380785277645,0.191952705383301,-0.558636248111725,-0.15789170563221,V
1526529953.04194,-0.0391164072986285,1.03904884777934,1.26186006712015,0.0157849583774805,-0.509064614772797,-0.117370992898941,V
1526529953.05793,-0.0475792893396382,1.0438123264839,1.27019389209677,0.0198763888329268,-0.506659090518951,-0.121663771569729,V
1526529953.05894,-0.0558582682495954,1.05010860394026,1.27839850156907,0.0237301681190729,-0.503509700298309,-0.127322494983673,V
1526529953.07381,-0.0636058117745584,1.05706803205106,1.2862559876139,-0.0427227653563023,-0.473869234323502,-0.0218341201543808,V
1526529953.08958,-0.070649091517137,1.06437397374904,1.29312760559964,-0.0940864533185959,-0.438426554203033,0.108490787446499,V
1526529953.09035,-0.077192231833606,1.07141500214541,1.29912139258203,-0.0913971066474915,-0.435032993555069,0.102105520665646,V
1526529953.10662,-0.0838236794499832,1.07810197261368,1.30511678992063,-0.0517520606517792,-0.418224275112152,0.15144020318985,V
1526529953.12112,-0.0912582988852847,1.08485200028395,1.31165182095288,-0.0756931453943253,-0.439496159553528,0.0855835303664207,V
1526529953.12189,-0.100330422865064,1.09219733800206,1.31922487904732,-0.0721273198723793,-0.43608945608139,0.0787034556269646,V
1526529953.13741,-0.111722308572299,1.10066779841061,1.32792624123132,-0.0677505284547806,-0.43222039937973,0.0706600621342659,V
1526529953.15346,-0.126699891458724,1.11042402966734,1.33897502276258,-0.0933504030108452,-0.500078439712524,0.040207751095295,V
1526529953.15426,-0.145110932183602,1.12158938580784,1.35171905557599,-0.086696669459343,-0.495173811912537,0.0291745569556952,V
1526529953.17069,-0.164579103815386,1.13417027361958,1.36370626063735,-0.30158069729805,-0.584523797035217,0.0335642360150814,V
1526529953.18497,-0.183826105397324,1.14782054421319,1.37424094418684,-0.398814529180527,-0.674645841121674,0.0236160513013601,V
1526529953.186,-0.201993142120581,1.16272348602713,1.3830130252424,-0.394231230020523,-0.668630003929138,0.00882898923009634,V
1526529953.20234,-0.217042790972144,1.17872513487969,1.38862541283057,-0.447776645421982,-0.684507668018341,0.00245679612271488,V
1526529953.21825,-0.228142406541427,1.19592889542148,1.39062747616968,-0.447248429059982,-0.678071141242981,-0.0140201756730676,V
1526529953.22035,-0.234597356752125,1.21413779722553,1.38811530255348,-0.448900580406189,-0.671558618545532,-0.0311005357652903,V
1526529953.23435,-0.237904073079319,1.23328480637454,1.38237242795633,-0.352244049310684,-0.581152856349945,0.00906902179121971,V
1526529953.24943,-0.238864188065729,1.2529532649985,1.37348307834245,-0.212130174040794,-0.385186553001404,0.0857038721442223,V
1526529953.25055,-0.237919318800321,1.27280865597718,1.36140250373758,-0.216876491904259,-0.379169017076492,0.0673853754997253,V
1526529953.26422,-0.232915563568024,1.29258666975157,1.3447891553329,-0.0654248222708702,-0.145339146256447,0.144980624318123,V
1526529953.28027,-0.222352140725469,1.31150537930491,1.32382927522545,0.107688888907433,0.11998388171196,0.252494066953659,V
1526529953.28123,-0.204983874512179,1.3282532167735,1.29781709300352,0.100034818053246,0.124142192304134,0.237554788589478,V
1526529953.29595,-0.178586454223271,1.34251324647058,1.26353207360437,0.0913480669260025,0.12746824324131,0.225117161870003,V
1526529953.31218,-0.142007716920662,1.35485590801598,1.21953683458857,0.127462729811668,0.378676563501358,0.0490691028535366,V
1526529953.31299,-0.0951769092296044,1.36581872994221,1.16707559189991,0.116481021046638,0.380966782569885,0.0395838394761086,V
1526529953.32852,-0.0410933164334451,1.37498536858187,1.10934003490278,0.318631380796432,0.568368852138519,-0.0653373003005981,V
1526529953.34379,0.0101310422417172,1.38262230280236,1.05582350333102,0.536099255084991,0.712053239345551,-0.118898116052151,V
1526529953.34476,0.0528692459975599,1.38952755076417,1.0116903539651,0.528467655181885,0.713321566581726,-0.125928163528442,V
1526529953.35984,0.0848308300234489,1.39604837359949,0.978950164228917,0.523263394832611,0.714476227760315,-0.132719233632088,V
1526529953.37576,0.106723359917529,1.40214462652554,0.956599273923531,0.52116733789444,0.785769283771515,-0.0452446192502975,V
1526529953.37659,0.1232423784954,1.40784084288377,0.939156700842377,0.519103586673737,0.786709368228912,-0.0511382147669792,V
1526529953.39102,0.134725890409817,1.41358587904679,0.926297911439379,0.354550421237946,0.783871471881866,-0.00220371526665986,V
1526529953.40831,0.139953208426522,1.41941037437032,0.919863052552602,0.310887157917023,0.708350598812103,0.118495836853981,V
1526529953.40943,0.137256802135326,1.42484004311448,0.921014441718066,0.312024623155594,0.709154903888702,0.113232761621475,V
1526529953.423,0.122867669300962,1.42977054379231,0.933573708412351,0.288528919219971,0.604940474033356,0.20224329829216,V
1526529953.43983,0.097170196224916,1.43359114903736,0.957531058446765,0.292486071586609,0.605470299720764,0.198874026536942,V
1526529953.4404,0.0658924219316876,1.43564574909072,0.986861068833595,0.29688373208046,0.605749189853668,0.197191253304482,V
1526529953.45492,0.0377648764762588,1.43588409465102,1.01294716268631,0.0595579370856285,0.465156316757202,0.289955526590347,V
1526529953.47163,0.0142273228224768,1.43450934979172,1.03443788452695,-0.02282221801579,0.317326426506042,0.251253932714462,V
1526529953.47258,-0.00651379758042748,1.43196974705191,1.05288404875079,-0.0199879016727209,0.316978186368942,0.253780364990234,V
1526529953.48658,-0.0233629012529819,1.42905409267669,1.06735305393151,-0.0745502114295959,0.168514460325241,0.141214281320572,V
1526529953.50265,-0.0324042554162535,1.4258490013341,1.07396521317572,-0.0983629375696182,0.0689965486526489,0.0904094055294991,V
1526529953.50321,-0.0347871549272177,1.42260821842091,1.07436329160692,-0.0979074388742447,0.0685232505202293,0.0936019346117973,V
1526529953.51893,-0.0336180585183219,1.41994822064939,1.07214067009464,-0.0979915410280228,0.0681270137429237,0.0962366685271263,V
1526529953.53546,-0.0301195503415755,1.41781236269041,1.06753159433696,-0.0399817600846291,-0.00322587229311466,0.063985675573349,V
1526529953.53651,-0.0260328537913858,1.41581807680924,1.06187292701847,-0.040552981197834,-0.00353174260817468,0.0659731775522232,V
1526529953.5509,-0.0205616601916493,1.4138307797966,1.0543918778078,-0.00159250968135893,-0.0403547324240208,0.0974661037325859,V
1526529953.56797,-0.0143350510417621,1.41166732669565,1.0461325882426,0.0617654472589493,-0.0544586665928364,0.0936989486217499,V
1526529953.56893,-0.00742658656170453,1.40941466676425,1.03782725236454,0.0606873258948326,-0.0548181235790253,0.0959345921874046,V
1526529953.58279,-0.00224397331616628,1.40790983459525,1.03195231081866,0.143567636609077,-0.0612103305757046,-0.0235479678958654,V
1526529953.59843,-0.000320857018477297,1.40762521389477,1.02871383235091,0.143255859613419,-0.0612565279006958,-0.0232667196542025,V
1526529953.60179,-0.00159587120267838,1.40827825741761,1.02824064254957,0.143461957573891,-0.0611506514251232,-0.0239113215357065,V
1526529953.61345,-0.00608987278518002,1.4096426968248,1.03110499271059,0.148895859718323,-0.0586114637553692,-0.0230176597833633,V
1526529953.62961,-0.0128693668007926,1.41169752712108,1.03638609466892,0.159189090132713,-0.0488539040088654,-0.00705097522586584,V
