Time,Roll,Pitch,Yaw,AccelX,AccelY,AccelZ,Letter,Name
1526524103.21827,2.78536939811813,1.52392202186232,2.90734951220055,-0.0336900651454926,-0.0424802340567112,0.27041557431221,C
1526524103.23524,2.70541069162793,1.52932366586878,2.9928387219139,-0.0508568845689297,-0.0145775191485882,-0.00169018376618624,C
1526524103.23604,2.61298004350534,1.53370133634738,3.08949402978204,-0.0520444959402084,-0.0144055914133787,0.00386421103030443,C
1526524103.25074,2.54551298945814,1.53573197608633,-3.1241339343047,-0.00750466855242848,-0.000278997991699725,-0.207737505435944,C
1526524103.26688,2.53087001590975,1.53535071837824,-3.10943181572651,-0.00814585573971272,-0.000292436452582479,-0.207758352160454,C
1526524103.26779,2.55751928590906,1.53320788166431,-3.13762935127252,-0.00854587461799383,-0.000370669062249362,-0.210075974464417,C
1526524103.28247,2.60098515997623,1.53001033906195,3.0992615237189,-0.00688585173338652,0.0277785956859589,-0.132799416780472,C
1526524103.29831,2.63405310758908,1.52626919137815,3.06307220100214,-0.0431491956114769,0.0521094165742397,0.0164117887616158,C
1526524103.29907,2.6461687042018,1.52243362573502,3.04817649634218,-0.0444977842271328,0.0519313402473927,0.0127817746251822,C
1526524103.31469,2.64350017147583,1.51871781424083,3.0486938605363,-0.0205663200467825,0.0617087967693806,0.0792089030146599,C
1526524103.33014,2.63228449010376,1.51575380614595,3.05798998150619,0.0228283833712339,0.0716666951775551,0.142214208841324,C
1526524103.33089,2.6156129822855,1.51387431532292,3.07320885045552,0.0210892371833324,0.0715615302324295,0.141045153141022,C
1526524103.34696,2.59946242069966,1.51287612386804,3.0880533624334,0.0197841860353947,0.0715042427182198,0.140659213066101,C
1526524103.36178,2.5899514603633,1.51244216807858,3.09631226292978,0.0421886816620827,0.0781318619847298,0.0913517028093338,C
1526524103.36254,2.58692421779388,1.51224453575851,3.09842059086856,0.0419345498085022,0.0781203210353851,0.0912767425179482,C
1526524103.37772,2.58490762092742,1.51209462098043,3.09962516464462,0.00337936799041927,0.0692156627774239,0.0755411610007286,C
1526524103.39368,2.57609518290561,1.51202611034024,3.1074168953378,-0.0420474074780941,0.054639495909214,0.0740495324134827,C
1526524103.39444,2.55574794000309,1.51173688344667,3.12651802878309,-0.0432095304131508,0.0546224638819695,0.0744595676660538,C
1526524103.40935,2.52550856687956,1.51089448328914,-3.12766041401958,-0.0331588760018349,0.04817895591259,0.0195456445217133,C
1526524103.42607,2.49205525905602,1.50940476671195,-3.09532395096257,-0.0356730781495571,0.0480886623263359,0.0195458475500345,C
1526524103.42719,2.46227438822851,1.50750599387504,-3.06657680947968,-0.038302093744278,0.0479703694581985,0.0191980618983507,C
1526524103.4419,2.43664676658134,1.50539375672844,-3.04220756450017,0.0132223349064589,0.0400830842554569,0.00606902688741684,C
1526524103.45781,2.41456614458185,1.50358986541117,-3.02137669180548,0.0534787960350513,0.0238655433058739,0.0411480665206909,C
1526524103.45863,2.39486552120378,1.50237143105932,-3.0027158788294,0.0516733191907406,0.0237829778343439,0.0411449149250984,C
1526524103.47474,2.37511420223893,1.50167826195723,-2.98399396117488,0.0494792722165585,0.00540953874588013,0.0491268560290337,C
1526524103.48897,2.35599085217537,1.50121728386221,-2.96591274154572,0.000161530537297949,-0.0146266762167215,0.00819241628050804,C
1526524103.48995,2.33691683741017,1.50067872298562,-2.94797009689163,-0.00115410215221345,-0.0146642634645104,0.00876667443662882,C
1526524103.50798,2.317701709155,1.49988920972123,-2.92988572168954,-0.00265601719729602,-0.0147198876366019,0.00921063311398029,C
1526524103.52082,2.30016090250448,1.49866055211597,-2.91371150013161,-0.00422288570553064,-0.0294561255723238,-0.0140479886904359,C
1526524103.52204,2.2850785970298,1.49696725212639,-2.89993930098218,-0.0062171290628612,-0.029579596593976,-0.0143383555114269,C
1526524103.53656,2.27242001036343,1.49500644612285,-2.88829662997365,-0.00256520789116621,-0.0498982667922974,-0.00880283862352371,C
1526524103.55252,2.26115849090656,1.49289533172431,-2.87764423543712,0.00553436018526554,-0.0596733726561069,-0.00283606327138841,C
1526524103.55343,2.25147675329454,1.49078601891421,-2.86804995157096,0.00342323374934494,-0.0598397441208363,-0.0035761259496212,C
1526524103.5688,2.24486776796214,1.48871123105459,-2.86125034037402,0.0127069558948278,-0.0869699940085411,-0.017532080411911,C
1526524103.58462,2.240412959913,1.48673288877715,-2.85643914985493,0.0109338164329529,-0.0871341526508331,-0.0184698924422264,C
1526524103.58557,2.23716810438585,1.48491278513538,-2.85272003072894,0.00933949090540409,-0.0872886329889297,-0.0193770136684179,C
1526524103.60044,2.23389705682075,1.48302472792749,-2.84891636211261,-0.00231044320389628,-0.0966839268803596,-0.0223434325307608,C
1526524103.61632,2.25583270431648,1.49517463497355,-2.86989040363818,-0.0393402986228466,-0.0901992693543434,-0.0202887486666441,C
1526524103.61714,2.23913751437715,1.49191617982182,-2.85162097630861,-0.0426799170672894,-0.0904507339000702,-0.0213185660541058,C
1526524103.63192,2.21924173932823,1.48797083702023,-2.82946696870459,0.00901274848729372,-0.0705820024013519,-0.0339433960616589,C
1526524103.6477,2.19961688349084,1.48346859975631,-2.80674996139191,0.10710871219635,-0.0364339351654053,-0.0506897978484631,C
1526524103.64849,2.18408348777659,1.47872583959421,-2.78740908579878,0.102457545697689,-0.0368587858974934,-0.0523067787289619,C
1526524103.66341,2.1755787139154,1.47392057479539,-2.77466248263215,0.0980749204754829,-0.0373120792210102,-0.0543854460120201,C
1526524103.67958,2.17231300724686,1.46902392412606,-2.76706988389476,0.165289595723152,-0.00441140308976173,-0.0498483292758465,C
1526524103.68048,2.17019545630344,1.46417705874853,-2.75999214827509,0.161187812685966,-0.00491551263257861,-0.0523903332650661,C
1526524103.6955,2.16870448232546,1.45945497660903,-2.7531103499675,0.226356253027916,0.0383025817573071,-0.0176091399043798,C
1526524103.71228,2.16814102992314,1.45516338054689,-2.74723557254987,0.313783586025238,0.08145672082901,-0.0240907911211252,C
1526524103.71294,2.17141158306555,1.45134177062282,-2.7453890376448,0.310865312814713,0.0810085535049438,-0.0265473201870918,C
1526524103.72736,2.18285746253966,1.44829657175537,-2.75193311864054,0.383936494588852,0.10578753054142,-0.0422834455966949,C
1526524103.74333,2.20497852691549,1.44618360621496,-2.76927279053894,0.38382476568222,0.105527125298977,-0.0457208715379238,C
1526524103.74433,2.2345967876784,1.44527657620529,-2.79381714007472,0.385340720415115,0.105413980782032,-0.0492080748081207,C
1526524103.75891,2.27047550605065,1.445579137344,-2.82400591252847,0.373706430196762,0.134596109390259,-0.0112119754776359,C
1526524103.77618,2.3124851502664,1.44682122200265,-2.859445846542,0.331202119588852,0.13313302397728,0.0402442589402199,C
1526524103.77782,2.35699259477984,1.44883759373786,-2.89674956852091,0.336423009634018,0.133380353450775,0.0376864448189735,C
1526524103.79092,2.40480752591717,1.45137080098539,-2.93690974581746,0.322901457548141,0.184008836746216,0.0285046733915806,C
1526524103.80855,2.45837478668264,1.45429900576857,-2.9825284413314,0.33029368519783,0.221279725432396,0.0210918448865414,C
1526524103.80909,2.51944228916258,1.4576138605149,-3.03549483083179,0.337851077318192,0.221659556031227,0.0194576736539602,C
1526524103.82275,2.59629360913913,1.46127996553275,-3.10457260251917,0.346981465816498,0.222066938877106,0.0177901834249496,C
1526524103.84097,2.69111446069001,1.46488641544089,3.09128305885556,0.31430971622467,0.249355897307396,-0.000729442748706788,C
1526524103.84178,2.80152604789129,1.46795546696443,2.98821529353061,0.326094180345535,0.249675646424294,-0.00234396383166313,C
1526524103.85509,2.93392462967805,1.46980730531164,2.86249926108288,0.279109835624695,0.264817655086517,-0.0272707082331181,C
1526524103.87015,3.08508064065917,1.46944972378055,2.71706227150264,0.0968398600816727,0.293132364749908,-0.0212692581117153,C
1526524103.87092,-3.0409182182827,1.46639898237701,2.56461243140292,0.113027669489384,0.292819082736969,-0.0239377375692129,C
1526524103.88642,-2.8933074987657,1.46084267970611,2.42121472319267,0.129520148038864,0.292224735021591,-0.0266248863190413,C
1526524103.90208,-2.76414038309825,1.45400092274346,2.29648688396016,-0.07088303565979,0.292228907346725,0.0564525574445724,C
1526524103.90285,-2.65433749894926,1.44745567060679,2.19262916193958,-0.0562285035848618,0.291444927453995,0.0560693517327309,C
1526524103.91803,-2.56009945430427,1.44200001141756,2.10626987983128,-0.169563487172127,0.285265803337097,0.141860812902451,C
1526524103.93377,-2.46859951887484,1.43655161300534,2.02363408163238,-0.0494154691696167,0.270421653985977,0.0454723164439201,C
1526524103.93514,-2.37685381295937,1.42913698921745,1.93966240818085,-0.0350930728018284,0.269402027130127,0.0482565872371197,C
1526524103.94966,-2.28990016593518,1.41910564425805,1.85789138601492,-0.0990284532308578,0.272711962461472,-0.0123335365206003,C
1526524103.96642,-2.21315081553118,1.4062820471028,1.78323396119803,-0.0815916433930397,0.270692974328995,-0.0109096402302384,C
1526524103.96718,-2.1511499910924,1.39173395714723,1.72063808784741,-0.0637774467468262,0.268206059932709,-0.0104556102305651,C
1526524103.98144,-2.10269400606916,1.37686604929548,1.67057184826159,-0.273314952850342,0.268073856830597,-0.0190964229404926,C
1526524103.99722,-2.06510834038865,1.3634493333685,1.63190876271589,-0.540366649627686,0.245975539088249,0.0639383643865585,C
1526524103.99799,-2.03336579079424,1.35319238434315,1.60051795054671,-0.528385639190674,0.243812561035156,0.0652648285031319,C
1526524104.01336,-2.00050693770393,1.34626592574978,1.57007084085414,-0.519120335578918,0.192870572209358,0.16690169274807,C
1526524104.02907,-1.96484068566075,1.34170680777838,1.53840968325388,-0.344633728265762,0.182064473628998,0.100237607955933,C
1526524104.02985,-1.92696263592765,1.33770514157541,1.50462063919217,-0.337831676006317,0.181147947907448,0.106882572174072,C
1526524104.04518,-1.8894609700009,1.33282218117926,1.46991636711398,-0.33045506477356,0.180008456110954,0.113568440079689,C
1526524104.06077,-1.8544131146984,1.32683850727331,1.43531114961124,-0.285575985908508,0.151679262518883,0.0724994242191315,C
1526524104.06151,-1.82269356813783,1.32016670864077,1.40188284706012,-0.277284353971481,0.150046125054359,0.0782755017280579,C
1526524104.07817,-1.79456886578545,1.31376600148875,1.37010326921971,-0.387458801269531,0.121247671544552,0.0847932770848274,C
1526524104.0924,-1.77065151331308,1.30805971953278,1.34127378394216,-0.47155025601387,0.0874784886837006,0.0879334732890129,C
1526524104.09317,-1.750032444218,1.30357881590621,1.31516398033049,-0.466286033391953,0.0863049924373627,0.0924217775464058,C
1526524104.10884,-1.73032271584681,1.30010756960606,1.28949857719794,-0.467277497053146,0.105173259973526,0.143971249461174,C
1526524104.1246,-1.71186684057562,1.29708681508015,1.26401545347692,-0.463657945394516,0.10436112433672,0.148441463708878,C
1526524104.12552,-1.693986941827,1.29387526594666,1.2373807312201,-0.459954053163528,0.103488065302372,0.152852535247803,C
1526524104.14173,-1.67754128500161,1.29013121708685,1.21012069618144,-0.460467427968979,0.101496420800686,0.196944013237953,C
1526524104.15611,-1.66167582942355,1.28579081725019,1.18162708948589,-0.515789151191711,0.123768381774426,0.24937030673027,C
1526524104.1578,-1.64491566181521,1.28137245397528,1.15069342163898,-0.511175096035004,0.122516736388206,0.253752768039703,C
1526524104.17443,-1.62495795079914,1.27782948260011,1.11586082194942,-0.662069022655487,0.10567619651556,0.349417358636856,C
1526524104.18869,-1.59897251944348,1.27591523189322,1.07559824024919,-0.75732558965683,-0.121730796992779,0.439932465553284,C
1526524104.1896,-1.56391524888472,1.27642892011895,1.02749908638,-0.757708668708801,-0.121581636369228,0.450116544961929,C
1526524104.20386,-1.51784513328518,1.28013862837071,0.969334279516419,-0.761655569076538,-0.120511904358864,0.46328791975975,C
1526524104.22028,-1.46058120013503,1.28692627817827,0.899925893509998,-0.815086543560028,-0.16340383887291,0.401945352554321,C
1526524104.22116,-1.39186624721654,1.2957292855094,0.818169933378206,-0.826184988021851,-0.160975575447083,0.419480085372925,C
1526524104.23544,-1.3126361155164,1.30509669249434,0.724583199055595,-0.687187850475311,-0.164348185062408,0.234015300869942,C
1526524104.25198,-1.22289559103498,1.3140952611521,0.619796636255632,-0.573987245559692,-0.275030970573425,0.0621742941439152,C
1526524104.25279,-1.1206847374098,1.32296998873148,0.502247883778929,-0.591802537441254,-0.272815883159637,0.0823369696736336,C
1526524104.26724,-1.00527378106052,1.33108491809146,0.371749446570291,-0.263256877660751,-0.240492269396782,-0.169147044420242,C
1526524104.28333,-0.881008243502341,1.33772739244894,0.232303963159124,-0.285552948713303,-0.238936647772789,-0.149391680955887,C
1526524104.28428,-0.755579698357409,1.34290626548058,0.0902551539507903,-0.308797031641006,-0.237753555178642,-0.131928205490112,C
1526524104.29948,-0.634015905669854,1.34686278268096,-0.0501147306100138,0.166430547833443,-0.178120985627174,-0.426788508892059,C
1526524104.31517,-0.521307228760407,1.3496106992978,-0.183491467677989,0.70000159740448,-0.124261267483234,-0.580399990081787,C
1526524104.31598,-0.42164173628392,1.35074837357192,-0.30359320104528,0.680075585842133,-0.124012306332588,-0.571485757827759,C
1526524104.33097,-0.336941841790132,1.34988299348302,-0.405936529273193,1.05547416210175,-0.0948283970355988,-0.52035790681839,C
1526524104.34658,-0.270279888767879,1.34726018952075,-0.486392505509275,1.10881018638611,-0.0924310013651848,-0.456748276948929,C
1526524104.34706,-0.222481700622414,1.34378326188009,-0.544147516161843,1.0992830991745,-0.0932076573371887,-0.450858682394028,C
1526524104.36259,-0.190761975675497,1.34012887642134,-0.582627767728985,1.09297096729279,-0.0940366461873055,-0.445899575948715,C
1526524104.37871,-0.170272069758078,1.33704778760794,-0.607003483771153,0.866397559642792,-0.0890236422419548,-0.361003041267395,C
1526524104.37939,-0.157479212422092,1.33467504950968,-0.621351696437249,0.863835990428925,-0.0895759612321854,-0.358240634202957,C
1526524104.39446,-0.149037651589772,1.3330560196172,-0.629339486627048,0.614971458911896,-0.0719353556632996,-0.258894413709641,C
1526524104.41131,-0.141351642286042,1.33224493948531,-0.634794661399658,0.407389342784882,-0.0467513240873814,-0.140023812651634,C
1526524104.41231,-0.133852012636603,1.33199389639384,-0.638488523891219,0.405666530132294,-0.0468106716871262,-0.139538988471031,C
1526524104.42624,-0.127461700236966,1.33197650154829,-0.640039808456147,0.404170006513596,-0.046814788132906,-0.13932529091835,C
1526524104.4425,-0.125084273133787,1.33181414678045,-0.637398503632385,0.318167269229889,-0.028084896504879,-0.0293720029294491,C
1526524104.44305,-0.129507084740434,1.33180284608567,-0.628495444152069,0.319207161664963,-0.0280875712633133,-0.0294940266758204,C
1526524104.45834,-0.140718660573706,1.33236916122939,-0.613911840273657,0.204724937677383,-0.0228419713675976,-0.0296639278531075,C
1526524104.47512,-0.154874012489341,1.3333377988605,-0.597234159920735,0.00117557484190911,-0.0268403459340334,0.0613514371216297,C
1526524104.47568,-0.167531238343692,1.33441335104002,-0.582337390615217,0.00394001649692655,-0.0265879016369581,0.0598426796495914,C
1526524104.49065,-0.176370668577556,1.3354435125893,-0.570815204364369,-0.107355356216431,-0.0291547831147909,0.121139712631702,C
1526524104.50792,-0.181022198339364,1.33613804806888,-0.563148106383083,-0.106409564614296,-0.0289930626749992,0.120282508432865,C
1526524104.50872,-0.182625359810373,1.33652521995043,-0.558819671872098,-0.106111347675323,-0.0289031136780977,0.119844786822796,C
1526524104.52225,-0.182837118322611,1.33676456941571,-0.556777909328327,-0.110286243259907,-0.0348290242254734,0.13182920217514,C
1526524104.53742,-0.181747377072929,1.33692533924221,-0.557002871173436,-0.113080739974976,-0.0354173667728901,0.0963360741734505,C
1526524104.53987,-0.180045066111503,1.33712509752976,-0.558224215785122,-0.113503605127335,-0.0353710912168026,0.0962158665060997,C
1526524104.55341,-0.177333804146018,1.3372225343792,-0.560428137322711,-0.0659813806414604,-0.0251709222793579,0.104580700397491,C
1526524104.56917,-0.173928640477854,1.33680948889428,-0.563261699868839,-0.034781739115715,-0.00837512779980898,0.0461236834526062,C
1526524104.57003,-0.169059075903616,1.33651843394525,-0.567810097601192,-0.0358465872704983,-0.0084426524117589,0.0465954393148422,C
1526524104.58549,-0.163582757214867,1.33654997039783,-0.573259854254637,-0.0371053144335747,-0.00843533221632242,0.0467756390571594,C
1526524104.60132,-0.158250303361802,1.33691698442904,-0.578918564831886,-0.00389843690209091,0.00623719207942486,0.0342923030257225,C
1526524104.60235,-0.152933167863694,1.33730812270356,-0.584895585552169,-0.00517377723008394,0.00632776552811265,0.0341071933507919,C
1526524104.61681,-0.147723519323225,1.33743718098102,-0.591113719530203,0.0124758314341307,0.0112251713871956,0.0688925236463547,C
1526524104.63315,-0.143746693495535,1.33763315890499,-0.596086192241903,0.0646544843912125,0.0219974014908075,-0.00751761067658663,C
1526524104.63403,-0.142003982488642,1.3383838447494,-0.598612074711873,0.0641525462269783,0.022170577198267,-0.00818336103111506,C
1526524104.64864,-0.144356467259175,1.34041978684616,-0.597233688278954,0.10197090357542,0.011345986276865,-0.130674630403519,C
1526524104.66502,-0.152474993074314,1.3442470693676,-0.590841878760962,0.103238135576248,0.012212791480124,-0.134633332490921,C
1526524104.66605,-0.165734678818871,1.349540971725,-0.579921441172927,0.105327263474464,0.0133882276713848,-0.140196219086647,C
0,0,0,0,0,0,0,0,0
1526524105.46238,2.9339294176989,1.48799219550315,2.71977233421126,-0.0516594834625721,-0.0969474241137505,0.0475006736814976,C
1526524105.46328,2.92325965846677,1.48671930675309,2.73234896950999,-0.0527967773377895,-0.0970535129308701,0.0464488752186298,C
1526524105.47579,-3.07294921611345,1.4871139131161,2.44980188986896,-0.0688214004039764,-0.0988362431526184,0.00534192332997918,C
1526524105.49085,-3.09706077400333,1.4880152829729,2.47804000989443,-0.0337488390505314,-0.104315504431725,0.48314556479454,C
1526524105.49164,-3.12636182265467,1.49494367325885,2.51169069152705,-0.0362756624817848,-0.103766545653343,0.489978969097137,C
1526524105.5082,3.12365430463717,1.5035253651661,2.55020627586859,0.0296475160866976,-0.064044676721096,-0.0240880828350782,C
1526524105.52239,3.08263283486829,1.51062351303815,2.59505949724679,0.027309687808156,-0.0635926723480225,-0.0169106759130955,C
1526524105.52337,3.04387606811024,1.51567643609172,2.63597754961458,0.025478433817625,-0.0633015558123589,-0.0117078311741352,C
1526524105.54088,3.01990216841859,1.51854636070041,2.66056333543598,0.0715411007404327,-0.0199499242007732,-0.0916043817996979,C
1526524105.55506,3.00714408916493,1.51982155446908,2.67281873673795,0.0416777916252613,-0.0145893376320601,-0.0410324223339558,C
1526524105.55608,2.99898589744642,1.5204088415415,2.6803010103848,0.0413494557142258,-0.0145595856010914,-0.0403944440186024,C
1526524105.56986,2.99037924444642,1.520799491152,2.68867816023874,0.0143375685438514,-0.00353839970193803,0.0169394817203283,C
1526524105.58741,2.97825217493672,1.52090382288683,2.70080225841775,0.0137559343129396,-0.0035331912804395,0.0171372219920158,C
1526524105.58869,2.968045684492,1.52060435658948,2.71081427079252,0.0132024781778455,-0.00354817090556026,0.0169279593974352,C
1526524105.60174,2.95931361308585,1.51985675098243,2.71877081682848,0.0377366617321968,0.00465378817170858,0.000203706091269851,C
1526524105.61774,2.95077275179295,1.51884473206631,2.72592028269727,0.025887168943882,0.0129788219928741,0.0218597762286663,C
1526524105.61855,2.94267057637218,1.51781880869891,2.73259875542953,0.0252719465643167,0.0129250222817063,0.0209369380027056,C
1526524105.63346,2.93000367616703,1.51708698718236,2.74391005795417,0.0186482109129429,0.0112227946519852,0.0633126571774483,C
1526524105.64942,2.9194589442156,1.51675888055358,2.75316952685386,0.0347468443214893,0.00417082570493221,0.0395858213305473,C
1526524105.65023,2.91014562903502,1.51658779738878,2.76115848427752,0.0342175178229809,0.00416157068684697,0.0395326502621174,C
1526524105.66603,2.89784336858348,1.51643101323104,2.77238494056922,0.0335319042205811,0.00415306352078915,0.0395376123487949,C
1526524105.68133,2.88381068639305,1.51629327870809,2.78568418787973,0.0370306447148323,0.00504583818838,0.0354434475302696,C
1526524105.68223,2.86845322226024,1.51581524857616,2.80062810019516,0.0360945835709572,0.0050196829251945,0.0352033153176308,C
1526524105.69743,2.85423227838537,1.51513432237074,2.8142917941004,0.0301917903125286,0.00389865832403302,0.0182879716157913,C
1526524105.71306,2.83957650338378,1.51438205447504,2.82805233225889,0.0288982726633549,-0.00461210310459137,0.0393836162984371,C
1526524105.71366,2.82078637254914,1.51370044075355,2.84560478126305,0.027675187215209,-0.00465076742693782,0.0390624366700649,C
1526524105.72882,2.80153926021842,1.51288886433385,2.86328253286497,0.0547779090702534,-0.00477370293810964,0.032887127250433,C
1526524105.74524,2.78553315889018,1.51192598374348,2.87777667651393,0.0535720363259315,-0.00482989242300391,0.032302126288414,C
1526524105.74584,2.76975823280894,1.51095728319815,2.89263527428152,0.0523533672094345,-0.00488735549151897,0.0317315980792046,C
1526524105.76035,2.75328708111294,1.51018480190938,2.90885952282232,0.046553798019886,-0.0239157844334841,0.0514333993196487,C
1526524105.7765,2.73653251928981,1.50980865854948,2.92603047511195,0.0645585134625435,-0.0453924983739853,0.0878268778324127,C
1526524105.77798,2.71848645454284,1.50998718743736,2.94503740754985,0.0636247470974922,-0.0453816317021847,0.0884319022297859,C
1526524105.79226,2.6929365880291,1.5102188463838,2.97164845124649,0.0505530275404453,-0.0652955546975136,0.039597924798727,C
1526524105.8094,2.53543831136791,1.50609101167,3.12977651667602,0.0297212172299623,-0.0713065266609192,0.000905990367755294,C
1526524105.81005,2.50294035528848,1.50447857562564,-3.12067532436497,0.0270548760890961,-0.0714120864868164,0.000839138519950211,C
1526524105.82452,2.47122079218457,1.50208450978362,-3.08903442584177,0.0239033214747906,-0.0715735927224159,0.000247048126766458,C
1526524105.84158,2.43801839249403,1.49922324850304,-3.05608669932148,0.0617982558906078,-0.0735899209976196,0.0193221680819988,C
1526524105.84237,2.40751688791464,1.4961442126464,-3.02553975611706,0.0580996386706829,-0.0738148391246796,0.0184785276651382,C
1526524105.85587,2.3784145124822,1.49279285608095,-2.99531231551616,0.090729258954525,-0.0816997885704041,-0.00516404490917921,C
1526524105.87412,2.34219616669962,1.48913751066877,-2.95605396552854,0.0876391008496284,-0.0422573983669281,0.0172628555446863,C
1526524105.87494,2.30070746291861,1.48521826581675,-2.90982822153726,0.082420326769352,-0.0425847396254539,0.0171330813318491,C
1526524105.88751,2.26094098879844,1.48089482707586,-2.86407619466129,0.165781319141388,-0.0158334635198116,-0.0311881508678198,C
1526524105.90348,2.22481594595603,1.47625539021845,-2.82178961076017,0.160095676779747,-0.0162607114762068,-0.0314608514308929,C
1526524105.90448,2.1959851683129,1.47132703688526,-2.78698963303861,0.154493868350983,-0.016738036647439,-0.0321480333805084,C
1526524105.92022,2.17451625586265,1.46629746265361,-2.75972459899626,0.229727476835251,0.024986244738102,-0.0717902481555939,C
1526524105.9355,2.16007524393789,1.4612913274859,-2.73928053368461,0.288326680660248,0.0852578729391098,-0.0777811929583549,C
1526524105.93627,2.15518987710701,1.45660074975265,-2.72819833745499,0.284143328666687,0.0847343280911446,-0.0799082070589066,C
1526524105.9513,2.15751994479379,1.45239251966151,-2.72391149969221,0.330522418022156,0.160677284002304,-0.0487979352474213,C
1526524105.96695,2.1642682230894,1.44901346079654,-2.72279485631834,0.401778072118759,0.205362185835838,-0.000784013362135738,C
1526524105.96773,2.17485542726925,1.44672037167304,-2.72411845070917,0.400629907846451,0.20508100092411,-0.00313903205096722,C
1526524105.98291,2.19205317881866,1.44575916163718,-2.7310721906236,0.401078253984451,0.204961583018303,-0.00543541228398681,C
1526524105.99897,2.21639612018427,1.44659406996936,-2.7445801950103,0.500674307346344,0.285219788551331,0.00702049303799868,C
1526524105.99979,2.25067522383784,1.44955157022923,-2.7679463416919,0.505569636821747,0.285581827163696,0.0055184094235301,C
1526524106.0147,2.30050132798809,1.45470801186094,-2.80727395137179,0.540252268314362,0.313658118247986,0.0102163199335337,C
1526524106.03133,2.37504900773924,1.4616716476335,-2.87210724253647,0.448778361082077,0.341524958610535,-0.0186335016041994,C
1526524106.03224,2.47944989018776,1.46948513652775,-2.967418175508,0.462142050266266,0.34234556555748,-0.0199507027864456,C
1526524106.04656,2.61992076072443,1.47708377360043,-3.09878266549819,0.288115829229355,0.348136007785797,-0.0255256928503513,C
1526524106.06286,2.79357302853919,1.48338249335548,3.02070302709315,0.304973930120468,0.348705649375916,-0.0264657307416201,C
1526524106.06361,2.99200243048874,1.48743337131444,2.8335856062622,0.322337865829468,0.349051117897034,-0.0267335083335638,C
1526524106.07848,-3.07955596381757,1.48871063571224,2.63418248677458,0.155046731233597,0.363515198230743,-0.0181303676217794,C
1526524106.09405,-2.8598955869673,1.48651875312872,2.42643551705453,0.148247689008713,0.370199531316757,-0.0692938193678856,C
1526524106.09482,-2.64188561956723,1.47939182502958,2.21858104793854,0.168584600090981,0.369574308395386,-0.0685500055551529,C
1526524106.10999,-2.45265800916834,1.46677891219969,2.03699873784368,0.0155912321060896,0.362377643585205,-0.122614003717899,C
1526524106.12605,-2.30829866798956,1.44953747118965,1.89773721859066,-0.294732064008713,0.34258696436882,-0.099970780313015,C
1526524106.12681,-2.20561142485722,1.42957675250578,1.79830524322974,-0.270932286977768,0.339974880218506,-0.102100148797035,C
1526524106.14281,-2.13642344646927,1.40892205341447,1.73122096357863,-0.248195350170135,0.336856752634048,-0.105008363723755,C
1526524106.15797,-2.08912780411712,1.38898907506887,1.68554468642813,-0.486557960510254,0.319669663906097,-0.0482415817677975,C
1526524106.15875,-2.0546766460785,1.37055565078128,1.65300445109393,-0.467545539140701,0.316169857978821,-0.0511981248855591,C
1526524106.1755,-2.02840479608528,1.35468145411265,1.62899916704915,-0.626443684101105,0.258048981428146,0.0682249814271927,C
1526524106.19017,-2.00731892325371,1.34161035755631,1.61018036152127,-0.652349472045898,0.192738980054855,0.156420275568962,C
1526524106.19098,-1.98881275504099,1.33133873358087,1.59393498074635,-0.641476631164551,0.190354093909264,0.156190797686577,C
1526524106.2075,-1.96907681291495,1.32363207928998,1.57669794634008,-0.632724583148956,0.188497424125671,0.157586261630058,C
1526524106.22175,-1.94444567284312,1.31794516675289,1.55561495994029,-0.474599838256836,0.216127902269363,0.258890211582184,C
1526524106.22252,-1.91198726871774,1.31330465149398,1.52770429193117,-0.467527717351913,0.21495658159256,0.264994204044342,C
1526524106.2372,-1.87338218070798,1.30821076929672,1.49339185123855,-0.280138105154037,0.2437524497509,0.279856622219086,C
1526524106.25306,-1.83260873315241,1.30224719501612,1.45553830562428,-0.323558270931244,0.22642494738102,0.221454083919525,C
1526524106.25416,-1.79347444953681,1.29597272926051,1.41768301387237,-0.315172523260117,0.224741145968437,0.23019902408123,C
1526524106.26888,-1.75629621316599,1.28995983806679,1.38007653294935,-0.385096669197083,0.144432947039604,0.252164989709854,C
1526524106.28608,-1.720565636603,1.2845440924906,1.34237477450768,-0.37830314040184,0.142917826771736,0.261152893304825,C
1526524106.28689,-1.68468683155239,1.27933194663418,1.30357623186363,-0.372007697820663,0.141433119773865,0.270627379417419,C
1526524106.30076,-1.64935034584683,1.27393377789235,1.2642678631573,-0.364218652248383,0.119528010487556,0.29993611574173,C
1526524106.31701,-1.61498491511802,1.26841902558724,1.22459938390842,-0.411743968725204,0.0709032192826271,0.303694099187851,C
1526524106.31784,-1.57956777826054,1.26302999783205,1.18284123473984,-0.406324744224548,0.0692845657467842,0.31419163942337,C
1526524106.33247,-1.54182691292758,1.2578988945217,1.13785787692904,-0.517950296401978,0.0628501027822495,0.365269780158997,C
1526524106.34845,-1.5029612712843,1.25308434022046,1.09035055884498,-0.663422286510468,0.0643783211708069,0.299312204122543,C
1526524106.3493,-1.4648116589802,1.24879108564585,1.04143814281755,-0.660404026508331,0.0630283877253532,0.311615347862244,C
1526524106.36451,-1.42777498417857,1.24558395397941,0.991420181446847,-0.658849835395813,0.0620085522532463,0.323678344488144,C
1526524106.38062,-1.38941915009848,1.24377247898395,0.938291279364365,-0.796393752098083,-0.000156259775394574,0.328924983739853,C
1526524106.38143,-1.34659056029324,1.2439048296481,0.87975180778831,-0.799286603927612,-0.000113753594632726,0.342371821403503,C
1526524106.39647,-1.29669017480063,1.2463412070093,0.814633129241084,-0.958886504173279,-0.0875605642795563,0.326115190982819,C
1526524106.41219,-1.23688932641661,1.25151627844993,0.740419660657419,-1.13809955120087,-0.14557009935379,0.281871855258942,C
1526524106.4128,-1.16248305806049,1.2598799400429,0.652543221034334,-1.15386545658112,-0.142978116869926,0.300474464893341,C
1526524106.42837,-1.0670099026465,1.27101749891636,0.543750282358344,-1.14529538154602,-0.162594392895699,0.294856876134872,C
1526524106.44412,-0.942780544738095,1.28248776411811,0.406220449381254,-1.17383623123169,-0.159270048141479,0.3193539083004,C
1526524106.44541,-0.787225921433068,1.29096514195492,0.237782650516146,-1.20826053619385,-0.156894132494926,0.347238928079605,C
1526524106.45943,-0.604811399909809,1.2926880775872,0.0427265139772303,-0.840829312801361,-0.175371110439301,0.203482642769814,C
1526524106.47587,-0.415815812609232,1.28582536821092,-0.159707142631409,-0.207944229245186,-0.0400250069797039,-0.334791004657745,C
1526524106.47651,-0.244374480750471,1.27245171316249,-0.347208748219682,-0.250384479761124,-0.0438704453408718,-0.306759625673294,C
1526524106.49277,-0.104446211344597,1.25720206650942,-0.506642629851071,0.544780015945435,0.0633983165025711,-0.898600041866302,C
1526524106.50909,0.00326488925698658,1.2436382443557,-0.637119382691521,1.14928042888641,0.123747758567333,-0.882643342018127,C
1526524106.50964,0.083426031336682,1.23329999118388,-0.741749983892333,1.12273716926575,0.120374977588654,-0.87402069568634,C
1526524106.52312,0.142382539616624,1.22570497708987,-0.82459510084233,1.10232663154602,0.117832884192467,-0.86913526058197,C
1526524106.54125,0.184412246219267,1.21946982826154,-0.887916899414641,1.30382287502289,0.0888498947024345,-0.493539780378342,C
1526524106.54205,0.213689951994154,1.21344751135519,-0.933867498399183,1.29274868965149,0.0867603421211243,-0.490012377500534,C
1526524106.55521,0.233416400731634,1.20773401327814,-0.964999796053386,1.23577237129211,0.0438071936368942,-0.303982466459274,C
1526524106.57075,0.244950444944447,1.20329034816172,-0.983928088346258,1.03831195831299,0.0123431431129575,-0.301841825246811,C
1526524106.573,0.248500493311962,1.20092268814116,-0.992876490532811,1.03653192520142,0.0114898532629013,-0.300012648105621,C
1526524106.58631,0.245994214901942,1.20123762317059,-0.994904646651186,0.726843416690826,-0.0168082099407911,-0.281597316265106,C
1526524106.60255,0.238882013656978,1.20417212510087,-0.991544645063235,0.729985058307648,-0.0157522726804018,-0.283640772104263,C
1526524106.60338,0.22950159712702,1.2084607839136,-0.985202709239931,0.734167397022247,-0.0142235234379768,-0.286762356758118,C
1526524106.61861,0.219358837847259,1.2127663041591,-0.977313938218889,0.403664529323578,-0.0837967619299889,-0.0594872124493122,C
1526524106.6348,0.210139443646723,1.21630375286058,-0.96937901343462,0.179378479719162,-0.104856088757515,0.0899211540818214,C
1526524106.63558,0.202171614943616,1.21886900258589,-0.961736062746019,0.182568952441216,-0.103968739509583,0.0881294310092926,C
1526524106.65089,0.194959770648393,1.22093269544931,-0.954491573400064,0.0707880035042763,-0.108538910746574,0.0734281912446022,C
1526524106.66594,0.187760341779666,1.22283166800167,-0.947399704667624,-0.0081975320354104,-0.0987801998853683,0.0394295118749142,C
1526524106.66669,0.180555945128045,1.22501113495623,-0.940731312584295,-0.00541441375389695,-0.0980392619967461,0.0378630198538303,C
1526524106.68198,0.175107459162045,1.22719217999688,-0.935681955536805,-0.00323923584073782,-0.0973022654652596,0.0361683294177055,C
1526524106.6979,0.172640174914628,1.22924381784198,-0.933005699957399,-0.0695324689149857,-0.0907537117600441,0.047637801617384,C
1526524106.69875,0.173616029575632,1.23139989814411,-0.933075898433364,-0.0695033743977547,-0.0900337249040604,0.0455797351896763,C
1526524106.7137,0.179046900721361,1.2329888117986,-0.93714376117463,-0.0814534798264503,-0.077832967042923,0.0865124464035034,C
1526524106.7296,0.186821855925856,1.23435493674507,-0.943669738178987,0.0291062127798796,-0.0312385056167841,0.0716543346643448,C
1526524106.73071,0.194972231499369,1.23571949190985,-0.950948376984756,0.0267140194773674,-0.030788904055953,0.0698798596858978,C
1526524106.74566,0.20171990543907,1.23705837755155,-0.957205549502445,0.0925868004560471,-0.00488255033269525,0.0803800672292709,C
1526524106.76182,0.206923634282476,1.23834653186412,-0.962245200852982,0.0911677479743958,-0.00446136482059956,0.0788428112864494,C
1526524106.76261,0.210448782963376,1.23944646989185,-0.965540189003541,0.0902594774961472,-0.00410296116024256,0.0775875002145767,C
1526524106.77778,0.21128549538353,1.24046342208242,-0.965843517179133,0.138504341244698,0.0164757966995239,0.111471705138683,C
1526524106.79325,0.209787224541787,1.2415281656245,-0.963875978341532,0.150648713111877,0.0304619763046503,0.0532149448990822,C
1526524106.79402,0.206146489895267,1.24303721613402,-0.959981674508421,0.152092948555946,0.0309488512575626,0.0520599000155926,C
1526524106.80898,0.200476011627019,1.24482827409592,-0.954381487631194,0.099027544260025,0.0427086055278778,0.0626070499420166,C
1526524106.82516,0.193303112886304,1.24654781628098,-0.947515826522591,0.101593136787415,0.0432578474283218,0.0614572577178478,C
1526524106.82596,0.186214834044257,1.2481062975669,-0.940694528747738,0.104084469377995,0.0437532216310501,0.0604311153292656,C
1526524106.84285,0.1794496336726,1.24965515790482,-0.934284387419285,0.0552936121821404,0.0304645709693432,0.0625493004918098,C
1526524106.8576,0.173354585216678,1.2515316997406,-0.928250680410188,0.0500638522207737,0.0204961486160755,-0.0135898310691118,C
1526524106.85908,0.16875256366475,1.25401135685863,-0.922521920779656,0.0518827810883522,0.021271513774991,-0.0156658161431551,C
1526524106.87492,0.165277282713941,1.25714893984038,-0.916143788199766,0.105214163661003,-0.00952456519007683,-0.0676682963967323,C
0,0,0,0,0,0,0,0,0
1526524107.60379,2.85839278876627,1.47626304190623,2.81478044641076,-0.124398522078991,-0.0169008579105139,0.0333909019827843,C
1526524107.61936,2.83689620433696,1.4745836279115,2.83677062884867,-0.017787542194128,-0.0647750198841095,0.515950322151184,C
1526524107.62018,2.79682370903532,1.47641818615967,2.87827972771713,-0.0208184141665697,-0.0646004602313042,0.518897175788879,C
1526524107.63529,2.75256040114502,1.47980463161625,2.92550861195074,-0.00043782324064523,-0.0449236333370209,0.283019602298737,C
1526524107.65113,2.70803302006809,1.48313173190964,2.97269185549207,0.0180742759257555,-0.00316869374364614,0.117951288819313,C
1526524107.65202,2.66416982689429,1.4861440273746,3.01877540682687,0.0160047560930252,-0.00290948012843728,0.122306063771248,C
1526524107.66682,2.62607244054688,1.48949245166234,3.0585587422774,0.0840468183159828,0.00916309095919132,0.0848276391625404,C
1526524107.68454,2.59776749812479,1.49257831617983,3.08749964306048,0.0836547017097473,0.00940896105021238,0.0886213406920433,C
1526524107.6854,2.57547670942551,1.49500693020824,3.10995188501234,0.0834731310606003,0.00959578901529312,0.0915827453136444,C
1526524107.69871,2.55498322547391,1.49703400309406,3.13090801419616,0.0414972342550755,0.0345580130815506,0.0458940714597702,C
1526524107.71516,2.53250689452729,1.49901675857867,-3.12888748675984,0.0296018160879612,0.0238073989748955,0.0505692511796951,C
1526524107.71599,2.50919985549613,1.50065464793525,-3.10490670247968,0.0292078219354153,0.0239235274493694,0.0528592728078365,C
1526524107.73044,2.49116184191237,1.50149907607035,-3.08646052844253,0.0503877326846123,0.0205491241067648,0.000834501988720149,C
1526524107.7457,2.48190070514421,1.50201998959669,-3.07716544960479,0.0489007085561752,0.0137948971241713,0.0236847456544638,C
1526524107.7462,2.47937174064401,1.50244692591781,-3.07498796067913,0.0490254051983356,0.0138241462409496,0.0241273362189531,C
1526524107.76178,2.47841259412609,1.50264495779797,-3.07457171410755,0.0490953959524632,0.0138376513496041,0.024323333054781,C
1526524107.7781,2.47549651525425,1.50240820208344,-3.07215662685996,-0.0086256954818964,-0.00751028582453728,0.0256944261491299,C
1526524107.77875,2.47133202155658,1.50157298732814,-3.06877404957909,-0.00936667621135712,-0.00756770838052034,0.0252177640795708,C
1526524107.79345,2.46780327299949,1.50029456495999,-3.06644084299878,0.0179516449570656,-0.0216950345784426,0.00969416089355946,C
1526524107.81065,2.46692660368845,1.49882722775411,-3.06715933536887,0.0262970346957445,-0.0147651713341475,0.0221548173576593,C
1526524107.81135,2.46785572295043,1.49716229049432,-3.06993394577829,0.0253132078796625,-0.014886274933815,0.0208154153078794,C
1526524107.82576,2.47057136466175,1.49547025609222,-3.07440554109222,-0.000924509717151523,-0.0271886941045523,0.073263518512249,C
1526524107.84201,2.46448554990399,1.49393954182385,-3.06913455315024,-0.00223861052654684,-0.027305057272315,0.0723598077893257,C
1526524107.84266,2.44888044749498,1.49282260483752,-3.0533521477865,-0.00387773034162819,-0.0273914374411106,0.0722608417272568,C
1526524107.85762,2.42910458215834,1.49190404883399,-3.032413186866,0.0208983439952135,-0.0212378241121769,0.0815202072262764,C
1526524107.87514,2.40792772779341,1.49091195869169,-3.00964321233684,0.063693068921566,-0.0124358860775828,0.0447806194424629,C
1526524107.87653,2.38981891907354,1.48980282574271,-2.98982322679071,0.0618735812604427,-0.0125250071287155,0.0449503213167191,C
1526524107.88931,2.37289050886065,1.48835506088535,-2.97121292647338,0.0728631839156151,-0.00562414014711976,0.0314444117248058,C
1526524107.90793,2.35530841202754,1.48655927967619,-2.95183546437648,0.0914846360683441,-0.00647553009912372,0.0654212459921837,C
1526524107.90876,2.33250352843935,1.48446181422255,-2.92719020011683,0.088632345199585,-0.00665419735014439,0.0653522163629532,C
1526524107.92109,2.30321213541528,1.48207248722684,-2.89569006975483,0.0851464122533798,-0.00686306599527597,0.0656136944890022,C
1526524107.93745,2.26946852735701,1.47944639011621,-2.85932308569593,0.155050173401833,0.0250663347542286,0.0503950864076614,C
1526524107.94059,2.23416039220195,1.4769056906663,-2.82100047738382,0.151029139757156,0.0248313508927822,0.0513396039605141,C
1526524107.95277,2.20262058744047,1.47462697157231,-2.78621126812217,0.252761542797089,0.0513943061232567,0.0111440103501081,C
1526524107.96869,2.17609502901294,1.47270339895126,-2.75569110896417,0.295715540647507,0.0844719186425209,-0.0312663279473782,C
1526524107.9695,2.15530949643551,1.47112610309629,-2.72969146986399,0.293265730142593,0.0843162089586258,-0.0304465238004923,C
1526524107.98517,2.13700177511449,1.46990682860246,-2.70479204524151,0.308401525020599,0.141323044896126,-0.0352146588265896,C
1526524108.00068,2.12209983121932,1.46912763330925,-2.68192789289803,0.306945502758026,0.141244262456894,-0.0343480817973614,C
1526524108.00158,2.11513250086964,1.46881386868874,-2.66602999067843,0.306310176849365,0.141212373971939,-0.033906064927578,C
1526524108.01706,2.11785248620459,1.46929943797719,-2.65984560486474,0.364727795124054,0.176402688026428,-0.0678880661725998,C
1526524108.03253,2.12999315063432,1.47104136458216,-2.66329770840123,0.395285546779633,0.19295035302639,-0.0698158666491508,C
1526524108.0333,2.1543756232877,1.47406999019671,-2.67939229795353,0.399113893508911,0.193247407674789,-0.0701975673437119,C
1526524108.04867,2.19375114848504,1.47848310833271,-2.71069729422051,0.385094463825226,0.199294403195381,-0.0497084334492683,C
1526524108.06464,2.25401006084416,1.4840290562318,-2.76322171167209,0.392753154039383,0.199790328741074,-0.0506323948502541,C
1526524108.0654,2.34067342172772,1.49000070607895,-2.84240731969425,0.402013093233109,0.20029005408287,-0.0521022863686085,C
1526524108.07958,2.45499210440043,1.49596449906746,-2.94917207965051,0.305573791265488,0.214120343327522,-0.0541592314839363,C
1526524108.09586,2.6011809504591,1.50150428567361,-3.08757824888247,0.216255351901054,0.224788382649422,-0.00256170495413244,C
1526524108.09672,2.78276659944127,1.50570035635065,3.02196601668518,0.229032874107361,0.225070118904114,-0.00409848196431994,C
1526524108.11146,2.99177065342485,1.50765832571161,2.82086398545401,0.0993467941880226,0.251303344964981,-0.00167451542802155,C
1526524108.12775,-3.06795412567787,1.50706619799436,2.60547088541316,-0.00424081226810813,0.27058345079422,0.0240100137889385,C
1526524108.12873,-2.85004683613381,1.50359533131572,2.39629963223671,0.0103748673573136,0.270356386899948,0.023207688704133,C
1526524108.1438,-2.66094491045513,1.49844653702584,2.21702666630428,0.0244956202805042,0.269997417926788,0.0234281253069639,C
1526524108.15984,-2.49883437385413,1.49195925653865,2.06519534983151,-0.0522808618843555,0.30852422118187,0.0640205070376396,C
1526524108.16064,-2.35669076654046,1.48306515521513,1.93244585090108,-0.0375622995197773,0.307784348726273,0.0650734379887581,C
1526524108.17542,-2.24090283886968,1.47156427343016,1.82408899096635,-0.0690061300992966,0.312173426151276,-0.027227146551013,C
1526524108.19126,-2.15003772758438,1.45744208527592,1.7377885923518,-0.216450780630112,0.304342776536942,-0.0202290862798691,C
1526524108.19205,-2.08229491824556,1.44137833311704,1.67164457343792,-0.198572188615799,0.302397668361664,-0.021484412252903,C
1526524108.20826,-2.03075207734321,1.42508794753489,1.62086452133024,-0.425880789756775,0.311104357242584,0.092896081507206,C
1526524108.22368,-1.98664310585488,1.41083321239859,1.57940681694416,-0.41027757525444,0.308934211730957,0.0930044129490852,C
1526524108.22453,-1.94186270570552,1.39976762040577,1.54073194192929,-0.397371709346771,0.307111263275146,0.0956339091062546,C
1526524108.24123,-1.89310983943053,1.39123643963035,1.50078501673567,-0.458728313446045,0.297307401895523,0.224936842918396,C
1526524108.25513,-1.84608011450586,1.38358855814432,1.46271202268052,-0.380385458469391,0.278120994567871,0.155998632311821,C
1526524108.25592,-1.80366723035665,1.37535226601452,1.42748267298496,-0.370533794164658,0.276554793119431,0.161772340536118,C
1526524108.27132,-1.76595976721218,1.36590222881936,1.39405201630268,-0.35490345954895,0.225527241826057,0.209718987345695,C
1526524108.28643,-1.73039917478601,1.3560047048338,1.36040284790427,-0.466811209917068,0.205734819173813,0.350281149148941,C
1526524108.28725,-1.69232093947498,1.34685382612991,1.32306793777312,-0.456808507442474,0.203743487596512,0.35723403096199,C
1526524108.30232,-1.65073411169298,1.33904016244681,1.28185694962024,-0.448292464017868,0.201978519558907,0.36581414937973,C
1526524108.31871,-1.6050785422865,1.33289024724345,1.23644987226289,-0.502675235271454,0.177567824721336,0.369104355573654,C
1526524108.31954,-1.55609359377238,1.32766268525201,1.18740004415658,-0.49748569726944,0.17632257938385,0.380721479654312,C
1526524108.33422,-1.5071663797509,1.32248441141089,1.13732907798591,-0.455123037099838,0.179838940501213,0.29844930768013,C
1526524108.35017,-1.46173230584288,1.31703973138486,1.08882888426364,-0.454001814126968,0.19011364877224,0.211697354912758,C
1526524108.35194,-1.42206096079344,1.31059493653771,1.04387786960707,-0.449117571115494,0.188475638628006,0.222496926784515,C
1526524108.36556,-1.38766842232931,1.30282675498869,1.00182575360719,-0.562407195568085,0.161591365933418,0.269316822290421,C
1526524108.38253,-1.35686415296235,1.2944252300479,0.961159415044045,-0.556107997894287,0.159332856535912,0.279030472040176,C
1526524108.38384,-1.32952375252781,1.28660522897111,0.921933026842825,-0.550494134426117,0.157169654965401,0.288093686103821,C
1526524108.39768,-1.30268451494873,1.280142661706,0.881471976220865,-0.816235184669495,0.128146469593048,0.292607933282852,C
1526524108.41423,-1.27111541295955,1.27597043828109,0.835041565275831,-1.06403696537018,0.0872543603181839,0.428982377052307,C
1526524108.41503,-1.22973818299937,1.27442945432628,0.77860431291572,-1.0664336681366,0.0868054553866386,0.4408860206604,C
1526524108.42938,-1.17629715749177,1.27577032811647,0.710729212428634,-1.29213130474091,-0.00188461609650403,0.380553036928177,C
1526524108.44528,-1.10843383272247,1.28056781674197,0.630158563655258,-1.41733837127686,-0.089352622628212,0.291804641485214,C
1526524108.44592,-1.01914647120182,1.28925247016087,0.530585111766163,-1.4368371963501,-0.086903490126133,0.309767574071884,C
1526524108.46125,-0.897520022563383,1.30033927776501,0.402011947354782,-1.46459150314331,-0.0838822424411774,0.330749273300171,C
1526524108.47693,-0.737853713107647,1.31034267544519,0.23724305278407,-1.13793909549713,-0.128590643405914,0.318730980157852,C
1526524108.47802,-0.549976933123304,1.31462192763707,0.0428860034202308,-1.17873811721802,-0.127497494220734,0.344206213951111,C
1526524108.49348,-0.355287429051119,1.31056530635793,-0.162621588953713,-0.431383609771729,-0.113717049360275,0.0717854350805283,C
1526524108.50869,-0.177660504269889,1.29883843866712,-0.35809844666112,0.33444419503212,-0.10271692276001,-0.362776964902878,C
1526524108.50924,-0.0294601692656228,1.28185459190125,-0.530985496732743,0.295365154743195,-0.107417792081833,-0.342352390289307,C
1526524108.52562,0.0883942867639196,1.26132646207838,-0.677171413331311,1.13993859291077,-0.0254253745079041,-0.564631521701813,C
1526524108.54362,0.174854987106651,1.23913329354283,-0.791564328694584,1.11017847061157,-0.032418392598629,-0.547345399856567,C
1526524108.54606,0.232865075758869,1.21787502194401,-0.873819739827291,1.08706223964691,-0.0395535342395306,-0.531684815883636,C
1526524108.55626,0.268961848342875,1.19999231012307,-0.929298617977956,1.55930233001709,0.00707902386784554,-0.747007071971893,C
1526524108.57503,0.290953886695966,1.18671218026673,-0.965496303682639,1.40679061412811,-0.0283633694052696,-0.770494222640991,C
1526524108.57589,0.304749294029076,1.17771358433895,-0.98945536412251,1.3993501663208,-0.0317727290093899,-0.764067232608795,C
1526524108.58863,0.31538286296759,1.17212981517805,-1.00731665310364,0.941816449165344,-0.0876673683524132,-0.609518051147461,C
1526524108.60766,0.327292595809102,1.16932924248687,-1.02474614821602,0.936600625514984,-0.0887581333518028,-0.608535706996918,C
1526524108.60821,0.340114997384969,1.16847528926011,-1.0415640342279,0.931604325771332,-0.0890921652317047,-0.60943603515625,C
1526524108.62023,0.351926788627347,1.16863540541777,-1.05582633926169,0.709637641906738,-0.150919139385223,-0.31536653637886,C
1526524108.63613,0.36169278647051,1.16946201463819,-1.06728079074672,0.523875832557678,-0.172126054763794,-0.119598306715488,C
1526524108.63699,0.369598633532636,1.17089559244104,-1.07650130736015,0.521468460559845,-0.171566978096962,-0.121933490037918,C
1526524108.65206,0.375703282902796,1.17292648235369,-1.08330254707989,0.361768960952759,-0.160737916827202,-0.0387395620346069,C
1526524108.66784,0.380998780468098,1.17555627598362,-1.08885225006135,0.219986706972122,-0.125267833471298,-0.00883602630347013,C
1526524108.66861,0.385849321018279,1.17879560255912,-1.09366396379242,0.219380602240562,-0.124025441706181,-0.0123063502833247,C
1526524108.68431,0.389330423241232,1.18284861227478,-1.09685802337411,0.219572216272354,-0.122484631836414,-0.0162771642208099,C
1526524108.69939,0.392106536226654,1.18755868322989,-1.09931962546484,0.147759154438972,-0.0882882103323936,0.0169180333614349,C
1526524108.70015,0.394905586900025,1.19259220021457,-1.1014949615749,0.148590356111526,-0.0864178091287613,0.0122033003717661,C
1526524108.71568,0.398355834016191,1.19723873323369,-1.1040258424676,0.0697155967354774,-0.0597487241029739,0.0995548218488693,C
1526524108.7317,0.401475533800991,1.20115876246981,-1.10626575496273,0.0753432884812355,-0.0430360399186611,0.127014771103859,C
1526524108.73247,0.403085161280222,1.20500775415652,-1.10698580023009,0.0762170627713203,-0.0416523963212967,0.123483262956142,C
1526524108.74743,0.402560584389553,1.20896303747437,-1.10567464836617,0.0705136135220528,-0.00237263971939683,0.0787588059902191,C
1526524108.76362,0.401510945684861,1.21328154554408,-1.10377385979565,0.0724352672696114,-0.000852659228257835,0.0751834958791733,C
1526524108.76438,0.402302051912231,1.21788518694001,-1.10284146587316,0.0738704577088356,0.000748439982999116,0.0711035579442978,C
1526524108.77874,0.405929190518299,1.22295568296203,-1.10392247304645,0.0319652780890465,0.0600755587220192,0.022534029558301,C
1526524108.79486,0.409158009823287,1.22877390924441,-1.10529818043681,0.103293091058731,0.0609747730195522,0.0173794291913509,C
1526524108.79562,0.411518548525689,1.23573926485047,-1.10658096620758,0.105195119976997,0.0632880330085754,0.011042108759284,C
0,0,0,0,0,0,0,0,0
1526524109.63682,2.59775353182707,1.49661759063054,3.12574655049655,-0.0551161542534828,-0.0350070595741272,0.0247923955321312,C
1526524109.653,2.57888350327922,1.49455075536233,-3.13675646709306,-0.00334357656538486,-0.0482391491532326,0.375850081443787,C
1526524109.65381,2.53226993636335,1.49560111564313,-3.08740204819791,-0.00570211140438914,-0.0481596887111664,0.378672420978546,C
1526524109.66893,2.46358859572852,1.49854821276574,-3.01493752327262,0.0028487432282418,-0.0111841997131705,0.247933655977249,C
1526524109.68431,2.38005163315966,1.50199621731608,-2.92830544602239,0.0436272323131561,0.0234673358500004,0.00766240153461695,C
1526524109.68512,2.3026838543151,1.50465363361683,-2.84882546017984,0.0418958254158497,0.0236464999616146,0.0132495379075408,C
1526524109.70043,2.2418872518107,1.50649501663414,-2.78736068496738,0.0407419800758362,0.0237665120512247,0.0174611993134022,C
1526524109.71648,2.20562927055465,1.5075864960051,-2.75133334634507,0.0738492608070374,0.0544451847672462,-0.0181130468845367,C
1526524109.71729,2.19055315837235,1.50830190606581,-2.73730077672295,0.0738715007901192,0.0544901192188263,-0.0169273186475039,C
1526524109.73206,2.18408864157917,1.5085717738619,-2.73261364136439,0.0126400552690029,0.0644861832261086,0.0297454632818699,C
1526524109.74819,2.18617849523054,1.50831294992268,-2.73683016891003,0.00977270863950253,0.0673844888806343,0.0439859963953495,C
1526524109.7494,2.19119258150163,1.50767177197888,-2.74399868559837,0.00943342316895723,0.0673442408442497,0.0433587729930878,C
1526524109.76373,2.19742865503986,1.50686393401416,-2.75206673969882,0.0432050302624702,0.0615098774433136,0.0748542323708534,C
1526524109.77982,2.20372339559209,1.50628384862885,-2.75966857074415,0.0429751351475716,0.0614726468920708,0.0741868019104004,C
1526524109.78088,2.20504648407081,1.50611473054191,-2.76134993128135,0.0428896881639957,0.0614617317914963,0.0740180537104607,C
1526524109.79568,2.19776472155124,1.50660744616699,-2.75367196484921,0.0474353916943073,0.0494542717933655,0.138254791498184,C
1526524109.81234,2.18479724804892,1.50734191088812,-2.74012031123313,0.0299879927188158,0.025132829323411,0.0721693709492683,C
1526524109.81283,2.17109033749211,1.50782261550868,-2.72643024586758,0.0298879761248827,0.0251631960272789,0.0731542110443115,C
1526524109.82733,2.15864338211846,1.50810527177695,-2.714516253868,0.0539610050618649,0.0100137088447809,0.0644535273313522,C
1526524109.84327,2.14908117188156,1.50838533104959,-2.70550739521291,0.0538652278482914,0.010031214915216,0.0651063993573189,C
1526524109.84424,2.13810823874259,1.50861476589534,-2.69477732256085,0.0536874197423458,0.0100454986095428,0.0658046007156372,C
1526524109.85917,2.1242178390056,1.50890589653544,-2.68040569391151,0.0385527536273003,-0.00342522142454982,0.0731887146830559,C
1526524109.8755,2.11284646374227,1.50919823602853,-2.6682396820716,0.0449519529938698,-0.0148665336892009,0.0673021078109741,C
1526524109.87604,2.09994098339435,1.50933615051442,-2.65436979949995,0.0446653328835964,-0.0148580530658364,0.0680547878146172,C
1526524109.89132,2.08634339721039,1.5094955525821,-2.63969102755784,0.0531303584575653,-0.012849373742938,0.071344219148159,C
1526524109.90836,2.06916200226371,1.50958319143598,-2.62120226784548,0.0618514269590378,-0.0154227437451482,0.0703835934400558,C
1526524109.90901,2.0499138760599,1.50959192442648,-2.59999544093678,0.0613063164055347,-0.0154222091659904,0.0714272484183311,C
1526524109.92371,2.02983090962115,1.50935417095104,-2.57772138505265,0.0605382733047009,-0.0154367806389928,0.0724177956581116,C
1526524109.94066,2.00897116759425,1.50878667645035,-2.5548346090745,0.0857149735093117,-0.0122827002778649,0.0439889244735241,C
1526524109.9421,1.98621638021019,1.50811353634353,-2.52966280729501,0.0845165699720383,-0.0123246405273676,0.0450013838708401,C
1526524109.95437,1.96411498768229,1.5075176336587,-2.50486949106511,0.149477869272232,-6.35623146081343e-05,0.0269574951380491,C
1526524109.97032,1.94229685952678,1.50696921753946,-2.48027577843602,0.199524223804474,0.0276878625154495,0.0116356331855059,C
1526524109.97114,1.91992371484138,1.50641059807939,-2.45509246579762,0.198497265577316,0.0276520755141973,0.0127803143113852,C
1526524109.98633,1.89968607632919,1.50580782894517,-2.43178675872294,0.265991687774658,0.0579781010746956,-0.0208997298032045,C
1526524110.00309,1.88317325660639,1.50547117195608,-2.41134460369015,0.265334010124207,0.0579561814665794,-0.0199852492660284,C
1526524110.00418,1.87488290043365,1.50590418828163,-2.39842443008867,0.265582114458084,0.0579843558371067,-0.0193401910364628,C
1526524110.01821,1.87555018917661,1.50724311503511,-2.39390468604874,0.339150577783585,0.0806685537099838,-0.0617967061698437,C
1526524110.03422,1.89244528094624,1.50938058312213,-2.40473313989289,0.329954147338867,0.108664572238922,-0.120538495481014,C
1526524110.03502,1.94059620250315,1.51212155695462,-2.44591645189667,0.333506643772125,0.10882905870676,-0.122329838573933,C
1526524110.04988,2.02039128419398,1.51490604902078,-2.51787592069091,0.293989449739456,0.132914260029793,-0.0904089063405991,C
1526524110.06572,2.11619751779179,1.51768511130673,-2.60495464649124,0.272211968898773,0.190682828426361,0.0618316456675529,C
1526524110.06648,2.21731456354397,1.52069746250237,-2.69661154203489,0.277624934911728,0.190838202834129,0.0592032447457314,C
1526524110.08202,2.32388381196013,1.52376664701168,-2.79303702481296,0.283297121524811,0.190987199544907,0.0572192408144474,C
1526524110.09786,2.45109570298885,1.527157769583,-2.90990579995547,0.302445232868195,0.273370504379272,0.0717761367559433,C
1526524110.09863,2.63627510022679,1.53102464921478,-3.08517437023123,0.310982912778854,0.27353173494339,0.0706158429384232,C
1526524110.1136,2.89190005165583,1.53404535393601,2.95171130284715,0.299087166786194,0.334926575422287,0.0512650348246098,C
1526524110.12928,-3.07133030504417,1.53475252479735,2.64051274052052,0.140805035829544,0.36670583486557,0.0218226928263903,C
1526524110.13004,-2.74433519884278,1.531696062483,2.32171783940547,0.15339882671833,0.366591036319733,0.0217236094176769,C
1526524110.14568,-2.48412916392298,1.52535426349597,2.07021638309249,-0.0343426801264286,0.417089015245438,0.0604327172040939,C
1526524110.16116,-2.28850972780266,1.51796862982165,1.88532950059366,-0.0223260670900345,0.416726291179657,0.0616630613803864,C
1526524110.16205,-2.1294301129094,1.5104930178218,1.73905407933544,-0.0109982565045357,0.416303634643555,0.0644466876983643,C
1526524110.17652,-1.9973709770961,1.50229081885998,1.62001018625093,-0.103377342224121,0.435123890638351,0.0802134498953819,C
1526524110.19282,-1.89211587023689,1.49298493653627,1.52627875835728,-0.114935696125031,0.397853136062622,0.0177173335105181,C
1526524110.1936,-1.8105249421464,1.48202113446281,1.45397821842297,-0.102566972374916,0.396940976381302,0.0212158281356096,C
1526524110.20882,-1.75220593609343,1.46923715532735,1.40237733597301,-0.115855179727077,0.34972095489502,-0.00159832590725273,C
1526524110.22448,-1.70783973758972,1.45511454017452,1.36257116449378,-0.262626618146896,0.362380653619766,0.0950712189078331,C
1526524110.22548,-1.66893121909678,1.44059698753309,1.32732634446888,-0.247761249542236,0.360600352287292,0.0981192514300346,C
1526524110.24243,-1.6318039095136,1.42646857115318,1.29395789909759,-0.233408749103546,0.358667135238647,0.102070733904839,C
1526524110.25736,-1.59439243558815,1.41252117736352,1.26074718567796,-0.319418460130692,0.354031980037689,0.155308336019516,C
1526524110.25815,-1.55876689888562,1.39802199880799,1.22889627899613,-0.30508616566658,0.351642966270447,0.161095097661018,C
1526524110.27423,-1.52984357660592,1.38323863377835,1.20243228357887,-0.447592228651047,0.257685333490372,0.134770140051842,C
1526524110.2887,-1.50553580397909,1.36933630413523,1.17928253982225,-0.738314211368561,0.202630087733269,0.254611253738403,C
1526524110.28955,-1.48145157128576,1.35711225586618,1.15544311463675,-0.726772487163544,0.200110912322998,0.260483294725418,C
1526524110.30406,-1.45496338028418,1.34678227118901,1.12829499427828,-0.833023905754089,0.0832441970705986,0.400964140892029,C
1526524110.31985,-1.42420812917918,1.33811458639218,1.09579084582778,-0.82556563615799,0.0812821090221405,0.408970445394516,C
1526524110.32066,-1.38988840137213,1.33073962566746,1.05851341818942,-0.819802761077881,0.0795550867915154,0.418067932128906,C
1526524110.33573,-1.35286763499571,1.3249391578522,1.01674745374588,-0.894067585468292,0.00212510186247528,0.451624423265457,C
1526524110.35165,-1.31492611800184,1.32067807050245,0.972148372350084,-0.94683438539505,-0.0245860796421766,0.424490749835968,C
1526524110.35261,-1.27664410935806,1.31772186303621,0.925327728211986,-0.946667194366455,-0.0253220293670893,0.434439718723297,C
1526524110.36797,-1.23504886011033,1.31571764526106,0.873722845330911,-0.977938294410706,-0.090477280318737,0.477817475795746,C
1526524110.38365,-1.18680184562776,1.31493797964948,0.814775591340163,-1.07707595825195,-0.10823716968298,0.521688938140869,C
1526524110.38461,-1.12745123554438,1.31554770719557,0.744490468180533,-1.08364570140839,-0.108083039522171,0.535187184810638,C
1526524110.3996,-1.05275520149423,1.31746937399394,0.659014676935266,-1.09398007392883,-0.107599630951881,0.550984740257263,C
1526524110.41532,-0.964342286103032,1.3202506004466,0.559670469584009,-1.0797426700592,-0.0341219082474709,0.350722700357437,C
1526524110.41613,-0.867120020143946,1.32321301868818,0.450663566899395,-1.09661066532135,-0.0333916805684566,0.367972671985626,C
1526524110.43085,-0.765431731587637,1.326095034161,0.336476678755986,-0.971092581748962,-0.0169118475168943,0.0616267211735249,C
1526524110.44718,-0.663367247328687,1.33020776060074,0.220288843479114,-0.904668629169464,0.020346462726593,-0.299074560403824,C
1526524110.44772,-0.560048145266028,1.33704452543456,0.101198556439431,-0.928344070911407,0.0219527781009674,-0.290573537349701,C
1526524110.46337,-0.450573224845434,1.34522462878516,-0.0255552156832936,-0.621806383132935,0.0118368081748486,-0.109769999980927,C
1526524110.47926,-0.323360719399265,1.35165853794147,-0.169916072333931,-0.650131642818451,0.013255656696856,-0.104989938437939,C
1526524110.47988,-0.170146973948616,1.35209489240163,-0.336939403613256,-0.682470142841339,0.0133504224941134,-0.097282238304615,C
1526524110.49463,-0.00123692643698015,1.34329854245182,-0.515742915609393,-0.202342480421066,-0.0293977968394756,0.205505520105362,C
1526524110.51122,0.159191790620753,1.32459284343214,-0.686053995257662,0.513870358467102,-0.0161477215588093,-0.0725294053554535,C
1526524110.5122,0.287639457761293,1.29951371894678,-0.829267597850709,0.476485967636108,-0.0225644391030073,-0.0562131442129612,C
1526524110.52631,0.372490399348783,1.27411612697506,-0.936063555027018,1.48695755004883,-0.00670040445402265,-0.637079000473022,C
1526524110.54277,0.420267108846004,1.25380968354784,-1.01020546356537,1.46617639064789,-0.0128336874768138,-0.624797821044922,C
1526524110.54332,0.448107055714476,1.24023545444715,-1.06354225307107,1.45272839069366,-0.0171522479504347,-0.616849958896637,C
1526524110.55851,0.468480209167838,1.23181835168657,-1.10445284763306,1.57637214660645,-0.0119373435154557,-0.801647067070007,C
1526524110.57504,0.483398931824083,1.22614710896655,-1.13403476323208,1.3993284702301,-0.110991030931473,-0.449564397335052,C
1526524110.57559,0.493104363730412,1.22233371084686,-1.15349016007895,1.39473474025726,-0.112286292016506,-0.447943180799484,C
1526524110.59039,0.497072204651839,1.22061824302857,-1.16377760952267,1.17051446437836,-0.138859137892723,-0.3045614361763,C
1526524110.60771,0.49512754572601,1.22141324448516,-1.16636093545529,0.765999495983124,-0.164938628673553,-0.173828035593033,C
1526524110.60864,0.488112811642753,1.22414484883011,-1.16322630366544,0.769320607185364,-0.164007052779198,-0.174962475895882,C
1526524110.6228,0.478777485866297,1.22763678287287,-1.15609552025774,0.773642778396606,-0.162826403975487,-0.17640495300293,C
1526524110.6376,0.469642878002594,1.23049945710554,-1.14648199589223,0.390772134065628,-0.170671403408051,0.0426708869636059,C
1526524110.64132,0.463169591309034,1.23242773568072,-1.13703564567476,0.393514335155487,-0.170029565691948,0.0420157052576542,C
1526524110.65331,0.45941613738633,1.23387358717838,-1.12873409709206,0.190675660967827,-0.142100036144257,0.0830650553107262,C
1526524110.66928,0.456298409415693,1.23566761103456,-1.12059353985144,0.128168001770973,-0.113020323216915,0.074920155107975,C
1526524110.67005,0.451673628533819,1.23796235571532,-1.11121975661919,0.130481228232384,-0.112268090248108,0.0736366659402847,C
1526524110.68516,0.444798648775892,1.24087335984062,-1.1004124048257,0.0272446125745773,-0.0832600891590118,0.0794037729501724,C
1526524110.70156,0.4359960489351,1.24427813693061,-1.08873204775151,0.0311853978782892,-0.0821625292301178,0.0776979774236679,C
1526524110.70307,0.426956836995443,1.24768150385159,-1.07757052650793,0.035154614597559,-0.0810763984918594,0.0759746357798576,C
1526524110.71701,0.418831419638037,1.25083097992409,-1.06738236927434,-0.0822949111461639,-0.0534697473049164,0.117592863738537,C
1526524110.73319,0.412276509430652,1.25359161278073,-1.05869324592684,-0.122006446123123,-0.020500561222434,0.147364690899849,C
1526524110.73396,0.408508111472982,1.25605396446331,-1.05235630592531,-0.119998916983604,-0.0197354052215815,0.145685777068138,C
1526524110.74892,0.40766202362023,1.25883838935213,-1.04877805333674,-0.101633749902248,0.010877525433898,0.0610215254127979,C
1526524110.76457,0.40905069794411,1.26291456144605,-1.04869672029479,-0.0361803695559502,0.0278524961322546,0.0311064869165421,C
1526524110.76533,0.410244780433684,1.26857086115415,-1.04971934914344,-0.0343605205416679,0.0295513309538364,0.0260148905217648,C
0,0,0,0,0,0,0,0,0
1526524111.70181,2.87207870402554,1.44283948300941,2.83664052797904,-0.0591390170156956,-0.0259060263633728,0.0253903586417437,C
1526524111.71788,2.83966892753842,1.4411697512167,2.87041935972275,0.00759819289669394,-0.0176671110093594,0.0719415098428726,C
1526524111.71869,2.80458823101294,1.44044853030183,2.90699838489512,0.00305671594105661,-0.0177605971693993,0.0726906731724739,C
1526524111.73354,2.76625932856641,1.44113030547436,2.94744764284469,0.0230495985597372,4.32438064308371e-05,0.152083039283752,C
1526524111.74973,2.72938372022618,1.44347878405834,2.9879360639139,0.112322680652142,-0.0226050447672606,0.126642674207687,C
1526524111.75054,2.69428789751029,1.44664724637651,3.02659426305001,0.109631508588791,-0.0222077127546072,0.131333455443382,C
1526524111.76588,2.66274244197385,1.44992061671716,3.06103212633596,0.122770421206951,-0.011874214746058,0.0908720418810844,C
1526524111.78203,2.63198550942941,1.45425895216224,3.09492935829663,0.12160712480545,-0.0113604348152876,0.0963916480541229,C
1526524111.78296,2.59670218717599,1.45996083045815,3.13299967386608,0.12099827080965,-0.0107136052101851,0.103300429880619,C
1526524111.79735,2.56066549629983,1.46526116516417,-3.11204690314038,0.0891472324728966,0.0039883335120976,0.104354441165924,C
1526524111.81338,2.5347906908251,1.46932471812765,-3.0837235196596,0.100560940802097,0.0399458929896355,-0.0323254428803921,C
1526524111.81418,2.51584028669782,1.47278887531408,-3.06216816803429,0.101013377308846,0.0402908362448215,-0.0284220892935991,C
1526524111.82881,2.50095941360268,1.47587554861146,-3.04519564848817,0.0943211615085602,0.0626218169927597,0.010806574486196,C
1526524111.84529,2.49505886460367,1.47855280512952,-3.03770616970317,0.10915145277977,0.0901699662208557,-0.00967948883771896,C
1526524111.84603,2.5022935123829,1.48096590670388,-3.0437273896633,0.111118584871292,0.0903893485665321,-0.008150490000844,C
1526524111.86102,2.52174261259467,1.4830655812113,-3.06201364221614,0.113743744790554,0.0905755162239075,-0.00747546600177884,C
1526524111.87799,2.54884856192928,1.48496341641913,-3.08762887428683,0.0617588944733143,0.110027112066746,0.0328395068645477,C
1526524111.87894,2.57520236932343,1.48685613916019,-3.11234259556399,0.0646611079573631,0.110187590122223,0.0331936478614807,C
1526524111.89252,2.5968668221024,1.48906906080666,-3.13227663238316,0.0113015240058303,0.101123854517937,0.123004272580147,C
1526524111.90912,2.61292255788895,1.49136117606329,3.13575114298167,-0.00680542783811688,0.0418753735721111,0.111489489674568,C
1526524111.90967,2.62293549977567,1.49359942523537,3.12600788450792,-0.00501123024150729,0.0420504845678806,0.113030105829239,C
1526524111.92436,2.62801537523562,1.49566292472562,3.12120289622019,0.0167718697339296,0.0114915575832129,0.0851488709449768,C
1526524111.94219,2.63250107312661,1.49777355204699,3.11734755552352,0.0180913750082254,0.0116477655246854,0.0868220254778862,C
1526524111.94314,2.63517351821875,1.4998177529651,3.11557400182387,0.0192507207393646,0.0117948222905397,0.0885102152824402,C
1526524111.95597,2.63259855755852,1.50197678177558,3.11891701557255,0.0149679351598024,-0.0154133951291442,0.0577191151678562,C
1526524111.97422,2.61409159734632,1.50396020006744,3.13849095119574,-0.0189854577183723,-0.0205737669020891,0.0225685387849808,C
1526524111.97511,2.58274166301163,1.50567245377777,-3.11154335731725,-0.0198718998581171,-0.0204608738422394,0.0250992644578218,C
1526524111.98869,2.5456944513368,1.50678599916916,-3.07186787346888,0.0439020469784737,-0.0397371724247932,-0.0814755707979202,C
1526524112.00352,2.50744064111645,1.507222159177,-3.03025227474787,0.123872295022011,-0.0245879050344229,-0.0957959294319153,C
1526524112.00427,2.46928788812207,1.50690149561444,-2.98799272411564,0.121748238801956,-0.0246083289384842,-0.0945732668042183,C
1526524112.01977,2.43110993842422,1.50590272498047,-2.94535002643713,0.119220390915871,-0.0246725995093584,-0.0937745869159698,C
1526524112.03547,2.39666558593123,1.50433020644039,-2.90642318993199,0.217425748705864,0.00569599308073521,-0.12481452524662,C
1526524112.03621,2.37560127904419,1.50253000454209,-2.88078186592933,0.215162172913551,0.00557481218129396,-0.125149786472321,C
1526524112.0514,2.37929880045332,1.50089497697951,-2.87957507470573,0.387054145336151,0.0510399527847767,-0.174004644155502,C
1526524112.06727,2.40361738772058,1.49984902380438,-2.89857022928466,0.429403871297836,0.0787373483181,-0.108368545770645,C
1526524112.06836,2.44428338590274,1.49940057918549,-2.93377043603744,0.431288182735443,0.0787054598331451,-0.110607020556927,C
1526524112.08299,2.49862146564667,1.49946628843098,-2.98251022024053,0.430062055587769,0.113713808357716,-0.0799722671508789,C
1526524112.0997,2.57061060968419,1.49981639178844,-3.04869597614124,0.434464067220688,0.113738693296909,-0.0826042592525482,C
1526524112.10062,2.66534089576078,1.50014508612047,-3.13730969860912,0.440430372953415,0.113761954009533,-0.0856708735227585,C
1526524112.11497,2.77843847149346,1.49996120217858,3.0389824582576,0.407643705606461,0.145349904894829,-0.0724465921521187,C
1526524112.1313,2.90762310635551,1.49876260918495,2.91610773066626,0.355201303958893,0.218277662992477,-0.0412171520292759,C
1526524112.13215,3.05165450106333,1.49618736488198,2.77812867338289,0.365192264318466,0.218089014291763,-0.0454451590776443,C
1526524112.14688,-3.08038601377993,1.49221299230923,2.6324006120896,0.289881825447083,0.291896820068359,0.030119251459837,C
1526524112.16316,-2.92665468386481,1.48642502235062,2.48294674958583,0.13685517013073,0.327207624912262,-0.00217770854942501,C
1526524112.16396,-2.77795458933767,1.47805387913064,2.33745276650465,0.151820287108421,0.326467275619507,-0.00639930879697204,C
1526524112.17887,-2.65254227108259,1.4674796162552,2.21483388912186,0.167331844568253,0.325432330369949,-0.0108892684802413,C
1526524112.19415,-2.54991915239653,1.45572863520434,2.11648843051568,-0.0118749104440212,0.39895036816597,0.0213721673935652,C
1526524112.19461,-2.4638794872006,1.44364017424831,2.03698220771012,0.00360143324360251,0.397489905357361,0.0178796797990799,C
1526524112.21121,-2.3903746465858,1.43153641112837,1.97177088851978,-0.0773007720708847,0.417626112699509,0.0696462169289589,C
1526524112.22643,-2.32519202584718,1.41884809486953,1.91539408419144,-0.169762909412384,0.391462683677673,0.111105918884277,C
1526524112.22716,-2.26784680187722,1.40543745299535,1.86565812086782,-0.153849735856056,0.389343976974487,0.109096951782703,C
1526524112.24286,-2.21804881381125,1.39170612947097,1.82088735562914,-0.380874156951904,0.299756288528442,0.171363592147827,C
1526524112.25825,-2.17742021770046,1.37840151327588,1.78230928425595,-0.365885853767395,0.297299265861511,0.169769793748856,C
1526524112.25903,-2.14463963586019,1.36660526210771,1.74951818618903,-0.352685004472733,0.294975459575653,0.168698832392693,C
1526524112.27622,-2.11528481212118,1.35785971763213,1.72035903456575,-0.531112551689148,0.249356672167778,0.225342944264412,C
1526524112.2901,-2.0833387340417,1.35242488330081,1.69113312108579,-0.408945888280869,0.250543534755707,0.255821466445923,C
1526524112.29093,-2.0446490807535,1.34896970922881,1.65737444059939,-0.401977568864822,0.249789193272591,0.261665195226669,C
1526524112.30647,-2.00196919815586,1.34644379683373,1.62034882917942,-0.27763819694519,0.230156868696213,0.126089915633202,C
1526524112.32237,-1.95935712813884,1.34336168561587,1.5824869447128,-0.271080881357193,0.229466542601585,0.133646175265312,C
1526524112.32352,-1.92064810613923,1.339425472299,1.54676794449379,-0.264330446720123,0.228571459650993,0.140471756458282,C
1526524112.33738,-1.8843640339115,1.33548622944055,1.51240018994579,-0.268137723207474,0.19715827703476,0.0505068190395832,C
1526524112.35378,-1.8464537421328,1.33248818519915,1.47614635106745,-0.279277086257935,0.183195039629936,0.202686831355095,C
1526524112.35528,-1.80233025896855,1.33033430886704,1.43434783473172,-0.274627506732941,0.182684347033501,0.212288469076157,C
1526524112.36902,-1.75101450165451,1.32845558198188,1.38594958609817,-0.148600205779076,0.197524517774582,0.244873329997063,C
1526524112.38591,-1.69617018556804,1.32557116562362,1.33405991428572,-0.0192473642528057,0.239705488085747,0.0718301758170128,C
1526524112.38677,-1.64506356485625,1.32016025882151,1.28498738575025,-0.0127800526097417,0.238377660512924,0.0837852656841278,C
1526524112.40145,-1.60206513287936,1.31203096660096,1.24218520279215,-0.00435444945469499,0.236329451203346,0.0941881239414215,C
1526524112.41679,-1.56824663153114,1.30134229015595,1.20670333602178,-0.0986332967877388,0.217227533459663,0.0873791798949242,C
1526524112.41762,-1.54331096513302,1.28886134825679,1.17786759674539,-0.0867279767990112,0.213830053806305,0.0943463072180748,C
1526524112.4326,-1.52278267122334,1.27659635160569,1.15137270637152,-0.386873543262482,0.0798676908016205,0.252351224422455,C
1526524112.44872,-1.5011369768815,1.26575437131907,1.12183558308425,-0.705689966678619,-0.0152513403445482,0.451385051012039,C
1526524112.44953,-1.47609842440861,1.25702502640205,1.08801182004199,-0.698029696941376,-0.0179093610495329,0.459665596485138,C
1526524112.46472,-1.44504170661084,1.25064264082384,1.04780847693524,-0.867185592651367,-0.108826853334904,0.509443044662476,C
1526524112.48081,-1.40819838492787,1.24642180154039,1.00126168701595,-0.864900708198547,-0.110163658857346,0.521565198898315,C
1526524112.48179,-1.36778425402015,1.24437038635378,0.949822557528924,-0.865338265895844,-0.110819466412067,0.534622251987457,C
1526524112.49662,-1.32376014211272,1.24450971397124,0.893766906863106,-1.02614760398865,-0.109630391001701,0.38659131526947,C
1526524112.51228,-1.2750222446531,1.24659472434812,0.832379892975087,-1.07418668270111,-0.128220736980438,0.301851332187653,C
1526524112.51276,-1.21839819674807,1.25081310685873,0.763062974425975,-1.0836855173111,-0.126885399222374,0.317566633224487,C
1526524112.52791,-1.15054230431404,1.2578026853391,0.682065444739783,-1.09002387523651,-0.187225297093391,0.266935855150223,C
1526524112.54396,-1.07072351444601,1.2668746717915,0.587959388456881,-0.836303949356079,-0.172264114022255,0.0583653450012207,C
1526524112.54483,-0.978346235370101,1.27676968014863,0.480436990240113,-0.858504891395569,-0.169349640607834,0.0766988471150398,C
1526524112.55975,-0.873525156018297,1.28609103354692,0.359001913486342,-0.883605003356934,-0.166689857840538,0.0952287241816521,C
1526524112.57597,-0.75960242973808,1.29327956169292,0.226283177831626,-0.454540073871613,-0.152595371007919,-0.123928964138031,C
1526524112.57773,-0.643700570648171,1.29716209027876,0.0891575676067546,-0.481021285057068,-0.15153893828392,-0.106432616710663,C
1526524112.59171,-0.53525338005223,1.29767653464399,-0.0424577049240028,0.16443720459938,-0.163729146122932,-0.395735234022141,C
1526524112.609,-0.444140544161912,1.29588474849429,-0.157758535382129,0.711063623428345,-0.164763316512108,-0.665565609931946,C
1526524112.60955,-0.371772484027304,1.29277789781869,-0.253419802092347,0.694120407104492,-0.165611356496811,-0.654988706111908,C
1526524112.62341,-0.308244006044807,1.28896429915239,-0.337154780688433,0.82630455493927,-0.202370554208755,-0.593131363391876,C
1526524112.64139,-0.246431801590497,1.28467787224122,-0.41501790501753,0.810776889324188,-0.203571498394012,-0.584434866905212,C
1526524112.64194,-0.185534572265843,1.2802448875073,-0.48813200929205,0.794775724411011,-0.204832047224045,-0.576575100421906,C
1526524112.65534,-0.129066471434752,1.27647028771222,-0.553488638300572,0.96800172328949,-0.176150321960449,-0.595084667205811,C
1526524112.6711,-0.0825604370293522,1.2742150830528,-0.606193235232451,1.1598128080368,-0.156634852290154,-0.561602532863617,C
1526524112.67424,-0.0488854228137206,1.27370614086152,-0.644151430583056,1.15001666545868,-0.15678371489048,-0.560470104217529,C
1526524112.68683,-0.0277233507715735,1.27392613836259,-0.667728974247331,1.00188326835632,-0.130230084061623,-0.279803514480591,C
1526524112.70269,-0.0169055566367821,1.27498839964932,-0.679213129404451,0.660994827747345,-0.111517786979675,-0.136461615562439,C
1526524112.70346,-0.0145679731469662,1.27704006504166,-0.681388177285458,0.660284876823425,-0.110921710729599,-0.138413846492767,C
1526524112.71912,-0.0179602497678193,1.2797851135058,-0.677816843442724,0.661219775676727,-0.110130488872528,-0.141057953238487,C
1526524112.73457,-0.025112429510641,1.28280258922538,-0.670644609608554,0.337545722723007,-0.110810212790966,-0.0270192548632622,C
1526524112.73533,-0.0315376110567633,1.28625887459844,-0.663914238268136,0.339265376329422,-0.109834253787994,-0.0303849205374718,C
1526524112.75053,-0.0350208841083569,1.29009123000495,-0.659231879746923,0.0688125118613243,-0.0930642187595367,0.00826288480311632,C
1526524112.76628,-0.0354220393998762,1.29380286365537,-0.656528982452049,0.0756789222359657,-0.0711380541324615,0.0914849415421486,C
1526524112.76705,-0.0360245656602736,1.29706663290015,-0.652846904343134,0.0757304653525352,-0.0702506527304649,0.0883402824401855,C
1526524112.78198,-0.0397262903661944,1.30042276158603,-0.646318991959479,0.05601791664958,-0.043012160807848,0.0251662414520979,C
1526524112.79809,-0.0463532068899772,1.30427338767322,-0.637459123088235,0.0576142333447933,-0.041990838944912,0.0213813632726669,C
1526524112.79907,-0.0540349127489976,1.30819246202174,-0.627847789121631,0.059430580586195,-0.0409660488367081,0.0175026599317789,C
1526524112.81401,-0.0615577526450446,1.31214614553351,-0.618873143538735,0.00584735022857785,-0.0110470931977034,0.0812038853764534,C
1526524112.83043,-0.0704175621757524,1.31598521923422,-0.60915225709387,0.0139813078567386,0.000883533095475286,0.0928991138935089,C
1526524112.8313,-0.0794282474774761,1.3200500460516,-0.59992645208577,0.0159339122474194,0.00190012657549232,0.0888058692216873,C
1526524112.84565,-0.0895502773401691,1.32479640422936,-0.589584712449776,0.0174757298082113,0.020095719024539,0.0265775676816702,C
0,0,0,0,0,0,0,0,0
1526524113.8307,-3.02964612580659,1.46432860251232,2.41091840643417,-0.0294799618422985,-0.0267499834299088,0.058903481811285,C
1526524113.84676,-3.04683180118696,1.46176215182675,2.43056019039127,0.170559346675873,-0.102419659495354,0.709968268871307,C
1526524113.84725,-3.04804069693174,1.46659945431269,2.43230761802516,0.169979065656662,-0.101904906332493,0.714744687080383,C
1526524113.86223,-3.04504321928018,1.4779641429806,2.43160552907291,0.0122015094384551,-0.0174741484224796,0.26765713095665,C
1526524113.87884,-3.04335689879937,1.4901595414199,2.43249030355435,0.0111654940992594,-0.0164177194237709,0.279763251543045,C
1526524113.87986,-3.05712634734429,1.4998513440414,2.44845700839284,0.00924569927155972,-0.0156838744878769,0.289291560649872,C
1526524113.89437,-3.07758428560659,1.50649863048958,2.47102124406228,-0.0122474739328027,0.0190517790615559,-0.117436029016972,C
1526524113.91036,-3.09032612679768,1.51019154896188,2.48532563340727,0.103109836578369,0.0125226126983762,-0.122637160122395,C
1526524113.91135,-3.08706094354452,1.51163743382379,2.48274354679482,0.103228658437729,0.0126091437414289,-0.121185548603535,C
1526524113.92634,-3.07761251248396,1.51173392834112,2.47330812577498,0.0525258779525757,0.0114856939762831,-0.0321586355566978,C
1526524113.94238,-3.06580724943739,1.51112565249528,2.46129369176248,-0.00309897772967815,-0.000650616129860282,0.0247033834457397,C
1526524113.94293,-3.05660879839531,1.51012229030772,2.45195101014971,-0.00246718595735729,-0.000710954365786165,0.0237495005130768,C
1526524113.95784,-3.05532378711,1.50897103448149,2.45057431282265,-0.00229054410010576,-0.000781424285378307,0.022611340507865,C
1526524113.97572,-3.0612085918352,1.50790317251743,2.45654315335747,-0.0133247459307313,-0.00287739117629826,0.0519142411649227,C
1526524113.97634,-3.07238491252795,1.50745156290013,2.46794893472184,-0.0139940613880754,-0.00290587730705738,0.0514121167361736,C
1526524113.98965,-3.08752935208503,1.5078551084641,2.48355049434905,-0.0236396659165621,0.00542036816477776,0.0912754833698273,C
1526524114.00771,-3.10395804494164,1.50825226968636,2.5006050320869,0.00453373836353421,0.0180642884224653,0.0169019307941198,C
1526524114.00854,-3.11961562853566,1.50828386993079,2.51689618114205,0.00355483964085579,0.0180662646889687,0.0169042982161045,C
1526524114.02113,-3.12948956333719,1.50778546598998,2.52726515379238,0.0298300962895155,0.0201864931732416,0.0128411026671529,C
1526524114.0375,-3.13557499961522,1.50689150509367,2.53368063445029,0.0294522866606712,0.0201298017054796,0.0119454860687256,C
1526524114.0409,-3.13737542641361,1.50574937902067,2.53567793975906,0.0293421167880297,0.020056214183569,0.0108051551505923,C
1526524114.05308,-3.1404217579242,1.50458731838673,2.53862975475407,0.0184490494430065,0.00511794397607446,0.0608688183128834,C
1526524114.06897,3.13657200912713,1.50361347788542,2.54436521500459,-0.00213758321478963,-0.00236273044720292,0.0924449414014816,C
1526524114.06974,3.12645493171078,1.50302758183932,2.55414231517632,-0.00282557727769017,-0.00240223412401974,0.0918672904372215,C
1526524114.08489,3.11354262881628,1.5028863596508,2.56715488706731,0.00700797000899911,0.00605682050809264,0.103372521698475,C
1526524114.10108,3.10151864118881,1.50292250331936,2.57959218351755,-0.0084086898714304,-0.0143264699727297,0.0571411773562431,C
1526524114.10184,3.08889854926757,1.50278427442069,2.59270252368911,-0.00927094276994467,-0.0143358539789915,0.0570431463420391,C
1526524114.11735,3.07004239450366,1.50255755364308,2.61189819951293,-0.0105660799890757,-0.014351287856698,0.0568970814347267,C
1526524114.13255,3.04749030972812,1.50241579410568,2.63488396284693,0.0156134217977524,-0.0207696557044983,0.094526931643486,C
1526524114.1333,3.02173050580855,1.5027272269358,2.66123715690153,0.0139005891978741,-0.0207484234124422,0.0950233414769173,C
1526524114.14898,2.98755897709272,1.50306399453731,2.69613284812296,0.0301129166036844,-0.0222209356725216,0.0662994757294655,C
1526524114.16426,2.94412006652656,1.50332478056321,2.7404923526957,0.0712453424930573,-0.0133227044716477,0.0451722592115402,C
1526524114.16501,2.8859346022462,1.50353547441305,2.80003403631347,0.0674764141440392,-0.0133085213601589,0.0462567247450352,C
1526524114.17961,2.81981934078831,1.50350693692392,2.86803182249756,0.0632084831595421,-0.0133104398846626,0.0474946759641171,C
1526524114.1964,2.74687242634343,1.50309273311439,2.9433477617703,0.138169035315514,0.00791711732745171,0.00281210476532578,C
1526524114.19762,2.67017841759898,1.50225621774184,3.02291777297443,0.133081674575806,0.00786017626523972,0.00424541300162673,C
1526524114.21201,2.59303931028001,1.50104557267839,3.10368387497331,0.237736091017723,0.0441687442362309,-0.0488485433161259,C
1526524114.22818,2.52082965777529,1.49933047861668,-3.10294032592459,0.351289093494415,0.089930921792984,-0.103768154978752,C
1526524114.22921,2.45742187255815,1.49720816168882,-3.03492784605921,0.346354246139526,0.0897771343588829,-0.102660022675991,C
1526524114.24358,2.40804756921087,1.49508815200452,-2.98096331161386,0.51096099615097,0.115909919142723,-0.131515398621559,C
1526524114.26055,2.37836288149714,1.49340512070125,-2.94660618634487,0.508155763149261,0.115781210362911,-0.131200268864632,C
1526524114.26132,2.37058694635963,1.49244115318474,-2.93345639950242,0.507053256034851,0.115706220269203,-0.131472289562225,C
1526524114.27558,2.39224981743815,1.49251206218749,-2.94902438016061,0.613814234733582,0.179600313305855,-0.141011744737625,C
1526524114.29194,2.44819915353224,1.49375699007166,-2.99861395463047,0.637637555599213,0.218423709273338,-0.142992213368416,C
1526524114.29272,2.54039220090853,1.49570942618367,-3.08431201528068,0.644396901130676,0.218572080135345,-0.145664051175117,C
1526524114.30856,2.66672943294429,1.49753982791395,3.07907138120184,0.520674049854279,0.232928901910782,-0.0880114957690239,C
1526524114.32392,2.81785174800388,1.49839458835521,2.93445489879979,0.385832011699677,0.243534922599792,-0.0112991668283939,C
1526524114.32472,2.98786987018051,1.49789304772336,2.77151145711226,0.397691071033478,0.243498519062996,-0.0146983023732901,C
1526524114.34229,-3.11314427410773,1.495552514497,2.59735455806631,0.410982251167297,0.243325307965279,-0.017860921099782,C
1526524114.35548,-2.93203347925379,1.49081260313979,2.42522937571644,0.275867998600006,0.259513586759567,0.00113415997475386,C
1526524114.35631,-2.76370086299033,1.48411713092801,2.2670796297505,0.29118812084198,0.258956283330917,-0.00117799337022007,C
1526524114.37136,-2.61312967383226,1.47605399108787,2.12755402406933,0.122176423668861,0.273393094539642,0.0764312967658043,C
1526524114.38752,-2.48032462007765,1.46679090064873,2.00592759339866,-0.00794452428817749,0.290738880634308,0.0564930848777294,C
1526524114.38875,-2.36602107052818,1.45611270440637,1.90228118750297,0.00841585174202919,0.289573609828949,0.0567206032574177,C
1526524114.40246,-2.26961719796786,1.44407080277211,1.81591767892719,-0.150567963719368,0.293693095445633,0.0232467725872993,C
1526524114.41876,-2.19033555610306,1.43100370446263,1.74607096796012,-0.133888423442841,0.291956961154938,0.0236453451216221,C
1526524114.41983,-2.12461121299738,1.41793258462704,1.68950587838906,-0.117821134626865,0.290051102638245,0.0244694668799639,C
1526524114.4345,-2.06892016054406,1.40590557634287,1.64295124826157,-0.337690025568008,0.30310195684433,0.0755212306976318,C
1526524114.45041,-2.02118472386354,1.39587267964515,1.60413902627568,-0.500624775886536,0.283491671085358,0.0921027436852455,C
1526524114.4515,-1.9779280227802,1.38766582182706,1.56947416175147,-0.49007973074913,0.282030254602432,0.095751091837883,C
1526524114.46599,-1.94132681123257,1.3803021503693,1.54054294016374,-0.469303339719772,0.249702528119087,0.0199375711381435,C
1526524114.48223,-1.91053253343915,1.37313835728316,1.51608955751716,-0.417237222194672,0.26408326625824,0.0625820681452751,C
1526524114.48313,-1.88150776992062,1.36594328719314,1.49252275726324,-0.408703863620758,0.262644976377487,0.0658274069428444,C
1526524114.4979,-1.85156890069903,1.35856556707949,1.46727956653431,-0.399993717670441,0.261117547750473,0.0696529895067215,C
1526524114.51371,-1.8175580151651,1.35188342363565,1.43819015815422,-0.416271328926086,0.293059170246124,0.158470645546913,C
1526524114.51451,-1.77730947395579,1.3468775965818,1.40422913957889,-0.409527570009232,0.291959822177887,0.165985882282257,C
1526524114.52953,-1.73076577121886,1.34343471429117,1.36585483231566,-0.334644824266434,0.335913062095642,0.181456685066223,C
1526524114.54549,-1.67904119004624,1.34011290136429,1.32342953308262,-0.0912530347704887,0.355849832296371,0.144640922546387,C
1526524114.54597,-1.62564036969506,1.33537506786143,1.27867569899655,-0.0856558009982109,0.354755640029907,0.156555935740471,C
1526524114.56116,-1.57592146169056,1.32778743268185,1.2352866500568,0.0209860298782587,0.351615071296692,0.131930232048035,C
1526524114.57773,-1.53151237224836,1.31725211789001,1.19434607935548,0.0310078915208578,0.349026203155518,0.143014758825302,C
1526524114.57909,-1.49149297702267,1.30426986695916,1.1555873898371,0.0429193526506424,0.345688283443451,0.154028654098511,C
1526524114.59372,-1.45616503570408,1.28955877329069,1.11986793119885,-0.0820495560765266,0.29115703701973,0.209083333611488,C
1526524114.60923,-1.42373249232565,1.27376971044609,1.08616772999591,-0.25502136349678,0.15781007707119,0.299082487821579,C
1526524114.60996,-1.39413920572574,1.25681962764921,1.05424725565443,-0.240503683686256,0.152712032198906,0.31047111749649,C
1526524114.62573,-1.36892495151364,1.23949869655358,1.02498304447054,-0.508880019187927,0.0341983288526535,0.283006399869919,C
1526524114.64197,-1.34888889847826,1.22258407372817,0.998816097581673,-0.856541037559509,-0.0482970252633095,0.291819453239441,C
1526524114.64302,-1.33360606088355,1.20689288338871,0.974908431109368,-0.843432486057281,-0.0537666343152523,0.300353109836578,C
1526524114.65717,-1.31988015196017,1.19385286391702,0.950623694454784,-0.832838177680969,-0.0584872215986252,0.308111786842346,C
1526524114.6746,-1.30353181467372,1.18461713104391,0.922313739529944,-1.15965449810028,-0.144339039921761,0.411025434732437,C
1526524114.67558,-1.27934544202853,1.17964085544101,0.885623407093307,-1.15775549411774,-0.146224826574326,0.421105146408081,C
1526524114.68891,-1.243400713833,1.17744058597018,0.837799658422865,-1.20698499679565,-0.194932743906975,0.543240547180176,C
1526524114.70508,-1.1955706382629,1.17747077919063,0.778137721799328,-1.23622262477875,-0.202474281191826,0.350847065448761,C
1526524114.70777,-1.13840066209427,1.17959227687941,0.70915508726747,-1.24661076068878,-0.20166327059269,0.37017160654068,C
1526524114.72043,-1.07701409442289,1.18439250043401,0.634760517101187,-1.18778014183044,-0.172026813030243,0.0370453260838985,C
1526524114.73656,-1.01179411903982,1.19161706771428,0.555149777460489,-1.20580840110779,-0.169328361749649,0.0547388307750225,C
1526524114.73733,-0.939284985002175,1.20085039349285,0.467975725034335,-1.22779059410095,-0.16595022380352,0.0718843936920166,C
1526524114.75219,-0.8553001850753,1.21176030577095,0.369003740820997,-1.00931668281555,-0.237134382128716,0.0644204765558243,C
1526524114.76783,-0.758790160843536,1.22352068290319,0.256403231342991,-0.647592544555664,-0.190708562731743,-0.0860202983021736,C
1526524114.76862,-0.651515753460452,1.23417562604947,0.131134836109237,-0.681468665599823,-0.187135726213455,-0.0703498870134354,C
1526524114.78383,-0.538871164565902,1.24211040365271,-0.00160209860167048,-0.0170737635344267,-0.135853826999664,-0.38383349776268,C
1526524114.79991,-0.432427121913886,1.24716048013931,-0.130743672684595,-0.0494513139128685,-0.134235739707947,-0.372145861387253,C
1526524114.80084,-0.339981359631461,1.25001622425302,-0.248389806905505,-0.0775787383317947,-0.133331432938576,-0.36362960934639,C
1526524114.81619,-0.262304467808913,1.25158848776028,-0.352038752673275,0.601866841316223,-0.108895815908909,-0.660496771335602,C
1526524114.8315,-0.196870438239189,1.25266954389661,-0.442239960212643,0.95517885684967,-0.0604461617767811,-0.733674585819244,C
1526524114.83225,-0.13961596920081,1.25293403699116,-0.520656774428835,0.937490701675415,-0.0603634640574455,-0.730925023555756,C
1526524114.8477,-0.0883839834305825,1.25232798778471,-0.588831090286405,1.09581434726715,-0.0532440915703773,-0.624877452850342,C
1526524114.86319,-0.0429172272272742,1.25169457277694,-0.646991610547882,1.17489755153656,-0.0299745947122574,-0.57228672504425,C
1526524114.86394,-0.00559047903841513,1.25219744564704,-0.694058212603884,1.16318917274475,-0.0298169553279877,-0.572480320930481,C
1526524114.87899,0.0213946322181399,1.25438022289973,-0.728377192028743,1.15478134155273,-0.0291354935616255,-0.574620306491852,C
1526524114.89508,0.039542848375416,1.2574382389673,-0.751024913211992,1.08095359802246,0.00567085389047861,-0.328872621059418,C
1526524114.89596,0.0492766541434928,1.26085427932113,-0.762422564863873,1.07811617851257,0.00671831285580993,-0.332253366708755,C
1526524114.91096,0.0516072177956951,1.26475274098569,-0.764363255528204,0.800589859485626,0.00519931130111217,-0.110016621649265,C
1526524114.92749,0.0485417494637615,1.26894029805484,-0.760119124871565,0.46357136964798,-0.0501422397792339,0.0189885403960943,C
1526524114.92837,0.0402290685612464,1.27308436335251,-0.751380687353919,0.466199457645416,-0.0489184409379959,0.0151421586051583,C
1526524114.94214,0.0290680608688195,1.27652190789305,-0.740650997220257,0.177590027451515,-0.0795166939496994,0.128500282764435,C
1526524114.9592,0.0176959333994974,1.27932732870137,-0.730324543929378,0.180935069918633,-0.0787067636847496,0.125891849398613,C
1526524114.95999,0.0102076002429083,1.28186506180817,-0.723760369879475,0.183111518621445,-0.0779806077480316,0.123490378260612,C
1526524114.97525,0.00750990766755542,1.28418924999793,-0.721046113336158,-0.045671608299017,-0.0714768543839455,0.0972360447049141,C
1526524114.99018,0.00940644078223721,1.28653776504814,-0.72147543242498,-0.0423718467354774,-0.0478816144168377,0.0560224279761314,C
1526524114.99096,0.014051656114504,1.28929919809119,-0.723532695615835,-0.0436372272670269,-0.0471108444035053,0.0533557273447514,C
1526524115.00699,0.0191752796850226,1.29243533840094,-0.726089138818712,0.0205492079257965,-0.0259959548711777,0.045496791601181,C
1526524115.02267,0.023481352499323,1.29620872282356,-0.728330550019787,0.0786403268575668,-0.0129878018051386,0.00114728591870517,C
1526524115.02345,0.0269419747294147,1.30101115678829,-0.730377566895687,0.0778268873691559,-0.0116967260837555,-0.0035003200173378,C
1526524115.04174,0.0276621833775493,1.30673860323559,-0.731053112159539,0.077787809073925,-0.0101860389113426,-0.00902806222438812,C
1526524115.05383,0.0261390388700574,1.31282151212017,-0.729939206614779,0.120605655014515,-0.0343883670866489,0.0433963499963284,C
1526524115.05509,0.023225507401959,1.31853688298651,-0.727130677709268,0.121477164328098,-0.0329460427165031,0.0378858111798763,C
0,0,0,0,0,0,0,0,0
1526524116.04194,2.92233962140866,1.46909306058641,2.73433451599511,0.0734681338071823,-0.0178626328706741,0.363640576601028,C
1526524116.04253,2.92025242511134,1.46700562473185,2.7380210526695,0.0728054866194725,-0.0180767346173525,0.361661106348038,C
1526524116.055,2.91441771016304,1.46893561425514,2.74542579259501,0.0726485103368759,-0.0178786311298609,0.363665997982025,C
1526524116.07056,2.90073492808494,1.47336059701758,2.7613809887666,-0.0349696651101112,0.000460140610812232,0.274316191673279,C
1526524116.07414,2.88225687734717,1.47810550606194,2.78243908959579,-0.0355000086128712,0.00091052771313116,0.279326617717743,C
1526524116.08654,2.86166799977914,1.48212358927728,2.80537845671012,-0.0204688962548971,0.0189898498356342,0.0895577296614647,C
1526524116.10264,2.84581634627851,1.48524844457423,2.82322508566232,0.0262574106454849,-0.00127661786973476,0.137993276119232,C
1526524116.10351,2.83615143840797,1.48818843939204,2.83478942834695,0.0263496153056622,-0.0010297205299139,0.141031801700592,C
1526524116.11875,2.82788599800609,1.49146156474888,2.84484560994074,-0.0270194411277771,0.00913797318935394,0.162317618727684,C
1526524116.13421,2.81539502143751,1.49492063057476,2.85931332464779,-0.0268540270626545,0.00940614566206932,0.165895774960518,C
1526524116.13499,2.79824157377435,1.49780996004272,2.87850163543585,-0.0271121244877577,0.00962100271135569,0.169036135077477,C
1526524116.14991,2.77939125755843,1.49959506092312,2.89887442128782,-0.049621757119894,-0.000672167167067528,0.0551481656730175,C
1526524116.16614,2.75877916890278,1.50026295226285,2.92021031923582,-0.049899447709322,-0.00572131061926484,0.0543161928653717,C
1526524116.16691,2.7357279200815,1.50016710436763,2.94318658942687,-0.0514370128512383,-0.0057280701585114,0.054852481931448,C
1526524116.18166,2.70842625638914,1.50000334123471,2.97049009558287,-0.0223813597112894,0.0205665118992329,0.124245069921017,C
1526524116.19809,2.68040560668105,1.5002865612361,2.99929919008465,-0.0240426994860172,0.0205865055322647,0.125355109572411,C
1526524116.19885,2.65294817354337,1.50093272807641,3.0278843899596,-0.025460397824645,0.0206318199634552,0.126808747649193,C
1526524116.21423,2.63139986758885,1.50192139316733,3.05059501818762,0.0340035185217857,0.0147799383848906,0.103319622576237,C
1526524116.22946,2.61905229677636,1.50292102157517,3.0635264528875,0.0446723140776157,0.0164961833506823,0.024113267660141,C
1526524116.23021,2.61120966545962,1.50350184038073,3.07130963173342,0.0445055738091469,0.0165354087948799,0.0248804204165936,C
1526524116.24525,2.60320896237096,1.50364367872276,3.07919086032777,0.0115528926253319,0.0111128073185682,0.0354230217635632,C
1526524116.26117,2.58782154812773,1.5038077478676,3.09466488763326,0.0050498372875154,0.00805678684264421,0.0571861304342747,C
1526524116.26192,2.56347249075721,1.50393467096097,3.11927220098145,0.00374331325292587,0.00806527491658926,0.0581661351025105,C
1526524116.2781,2.53589926409948,1.50404319919735,-3.13581036149001,0.00227619544602931,0.00807251967489719,0.0592829808592796,C
1526524116.29303,2.50945524301461,1.50397511953334,-3.10902638034346,0.0323087796568871,-0.00719081284478307,0.0222723595798016,C
1526524116.29401,2.48805456954767,1.50343792917667,-3.08732700340822,0.0308391936123371,-0.00722682569175959,0.0227034222334623,C
1526524116.30884,2.47472964210821,1.50277936441418,-3.07375136880801,0.0909579023718834,-0.0201650448143482,-0.00626980606466532,C
1526524116.32536,2.46802385463109,1.50218751974067,-3.06666569128896,0.0898051708936691,-0.0152005618438125,0.0262208487838507,C
1526524116.32638,2.46247218013958,1.50161338990276,-3.06062181024347,0.0891485959291458,-0.015240085311234,0.0260133948177099,C
1526524116.34152,2.45674344248782,1.50102933028465,-3.0542592173705,0.103136301040649,-0.0275944732129574,0.00470884051173925,C
1526524116.35749,2.45155111528182,1.50021439626096,-3.04824326289834,0.102339066565037,-0.0276516135782003,0.00431158067658544,C
1526524116.35839,2.44436961650208,1.49913641936216,-3.03994442484804,0.101259224116802,-0.0277282148599625,0.00381106114946306,C
1526524116.37421,2.43301469893303,1.49797673722913,-3.02673451355008,0.145510017871857,-0.0107983686029911,2.5142388039967e-05,C
1526524116.38877,2.41705177069324,1.49688120331486,-3.00758007395385,0.198979064822197,0.0167244765907526,0.0194552671164274,C
1526524116.38962,2.40079698478998,1.49587521379339,-2.98645844306014,0.197409689426422,0.0166496820747852,0.0195178426802158,C
1526524116.40419,2.38614701178413,1.49521853645391,-2.96545767304776,0.31352761387825,0.06066769734025,0.0366480648517609,C
1526524116.42026,2.37523370595558,1.49509201617482,-2.94779362108032,0.407356292009354,0.128452941775322,-0.00695724738761783,C
1526524116.42114,2.37382282131444,1.49542807859235,-2.93984935537928,0.407512187957764,0.128478303551674,-0.00664209481328726,C
1526524116.43642,2.38581594914796,1.49647716677394,-2.94564114313438,0.408883154392242,0.128556743264198,-0.00650405278429389,C
1526524116.45205,2.41585327103357,1.4983023013272,-2.96986588858322,0.479837000370026,0.182233691215515,-0.0341591611504555,C
1526524116.45286,2.46650131735893,1.50091941190654,-3.01449432822349,0.484272986650467,0.182419836521149,-0.0344854928553104,C
1526524116.46823,2.54196221241939,1.50417396486099,-3.08386308182143,0.476178497076035,0.21132829785347,-0.00887748599052429,C
1526524116.48371,2.64589499807056,1.50739493775248,3.10199850512674,0.372939795255661,0.249623492360115,-0.0262071006000042,C
1526524116.48467,2.77415318714589,1.50967801524179,2.98061283806216,0.381134480237961,0.249765545129776,-0.0274774171411991,C
1526524116.49917,2.92196027191412,1.51103182790431,2.84019031385796,0.342714965343475,0.301757723093033,0.0397131070494652,C
1526524116.51562,3.08639542971859,1.51139604347651,2.68385275302797,0.352453023195267,0.301779419183731,0.0387322567403316,C
1526524116.51676,-3.0119104310141,1.51065950562662,2.5076350224721,0.36350029706955,0.301735430955887,0.0384112820029259,C
1526524116.53127,-2.81389366204577,1.50783166703116,2.31812571488576,0.331944048404694,0.33152973651886,0.0722460374236107,C
1526524116.5478,-2.62861411320295,1.50245118209813,2.14075291838995,0.197685271501541,0.372863739728928,0.0534131787717342,C
1526524116.54887,-2.46728608598727,1.4951604120763,1.98706730501899,0.211348026990891,0.372339338064194,0.0538891106843948,C
1526524116.56297,-2.32735631197874,1.48645018619305,1.85496374731449,0.134658724069595,0.401794701814651,0.0724814757704735,C
1526524116.579,-2.20494700683378,1.47604732779233,1.74092858912445,0.0577654168009758,0.399369031190872,0.00559129612520337,C
1526524116.57962,-2.10146740109254,1.46380113612474,1.64551835244452,0.0736560449004173,0.398135840892792,0.00759719451889396,C
1526524116.59484,-2.01825616066927,1.4499277317287,1.5691942709051,0.0902559608221054,0.39655864238739,0.00947570893913507,C
1526524116.6109,-1.95212700985471,1.43502718069997,1.50881792082791,-0.0649216696619987,0.389997959136963,-0.00224598054774106,C
1526524116.61193,-1.8969046888528,1.41946963559703,1.45902026962665,-0.0477470457553864,0.387772381305695,-0.000167822086950764,C
1526524116.62649,-1.85005784296942,1.40386399137375,1.41746688960647,-0.196510657668114,0.387679934501648,0.019811999052763,C
1526524116.64256,-1.80652898293528,1.3885115153083,1.37946774988645,-0.308782875537872,0.354846268892288,0.0457049831748009,C
1526524116.64311,-1.76752362383828,1.37323597238803,1.34587555499332,-0.292554557323456,0.35196253657341,0.0496786087751389,C
1526524116.65958,-1.73431554769997,1.35781550253764,1.31741091654087,-0.438051760196686,0.296649575233459,0.0434556640684605,C
1526524116.67534,-1.70683379708043,1.34259356084173,1.29355599641851,-0.422469258308411,0.293318927288055,0.0471850521862507,C
1526524116.67606,-1.68334018332692,1.32808670891654,1.27296810017666,-0.407793194055557,0.289934724569321,0.0508745796978474,C
1526524116.69107,-1.66089541532906,1.31500185457238,1.25365079810319,-0.579661965370178,0.23916058242321,0.122925408184528,C
1526524116.70781,-1.63496284839598,1.30453197841373,1.23141264808277,-0.740601301193237,0.211128994822502,0.300632387399673,C
1526524116.70866,-1.60267024228028,1.29686634943985,1.20330558684587,-0.732809543609619,0.209083616733551,0.308883905410767,C
1526524116.72232,-1.56445145052884,1.29146733197569,1.16926080261777,-0.681600749492645,0.0928019359707832,0.3362677693367,C
1526524116.74097,-1.52322738394392,1.2875373370226,1.13079478971284,-0.5943803191185,0.0464534051716328,0.227431699633598,C
1526524116.74177,-1.48272919776571,1.28439311248193,1.09125923166654,-0.592141449451447,0.0455698929727077,0.238988995552063,C
1526524116.75362,-1.44219142271375,1.28123307032966,1.05026839778133,-0.590374708175659,0.0446723811328411,0.250761747360229,C
1526524116.76952,-1.40098403081042,1.2774246008046,1.00760334373158,-0.545681655406952,0.0601948089897633,0.237210139632225,C
1526524116.77034,-1.36055130336271,1.27308929037776,0.964738312140866,-0.543834030628204,0.0589321255683899,0.249556839466095,C
1526524116.7854,-1.32294670684386,1.26874303367522,0.923592249580678,-0.607315361499786,0.0364537611603737,0.139414802193642,C
1526524116.80174,-1.28966042265626,1.26483958266715,0.885648589002514,-0.670671939849854,-0.0451895669102669,0.101345129311085,C
1526524116.80263,-1.26080200798494,1.26182239025977,0.850702261062833,-0.670465111732483,-0.0461027026176453,0.110537476837635,C
1526524116.81757,-1.23575138674721,1.26009838623645,0.817398133508552,-0.671328842639923,-0.0466283559799194,0.118301838636398,C
1526524116.83325,-1.21058738307512,1.26045995684603,0.781929669654107,-0.820161044597626,-0.129022151231766,0.168229505419731,C
1526524116.83401,-1.18198685625285,1.26301511951305,0.741718012916046,-0.825608432292938,-0.128244966268539,0.175435110926628,C
1526524116.84917,-1.14907461678449,1.26762221452427,0.697027476360864,-0.987066805362701,-0.197309210896492,0.190748959779739,C
1526524116.86475,-1.10605401039553,1.27523988432945,0.642719922373719,-1.19349360466003,-0.293268233537674,0.351416975259781,C
1526524116.86551,-1.04235660413978,1.28594943409969,0.568255822836197,-1.21119344234467,-0.290203750133514,0.362552672624588,C
1526524116.88075,-0.949911495413521,1.29823224117214,0.46432944112891,-1.13861548900604,-0.189397275447845,0.449425637722015,C
1526524116.89722,-0.826879068697575,1.30912122767802,0.327887371236198,-1.16721820831299,-0.186523094773293,0.468000769615173,C
1526524116.89803,-0.678602482517678,1.31714365307781,0.162523964355053,-1.20005714893341,-0.184478804469109,0.488161683082581,C
1526524116.91304,-0.510465125368603,1.32009605073937,-0.0260213345946809,-1.01953816413879,-0.0513416342437267,0.197809964418411,C
1526524116.9284,-0.339055786297183,1.31492668471748,-0.219753183730393,-0.519980609416962,0.0768033042550087,0.0218357276171446,C
1526524116.92914,-0.164823389176517,1.30260550552208,-0.415334400545351,-0.560677886009216,0.0736116245388985,0.0445534363389015,C
1526524116.94461,-0.00312407378597647,1.28021512127784,-0.596120655508037,0.158793017268181,0.178887456655502,-0.25382125377655,C
1526524116.96015,0.119623686640962,1.25761016884737,-0.736774309650126,0.936850368976593,0.160066485404968,-0.591525554656982,C
1526524116.96092,0.210005258143667,1.23625842935073,-0.845332444836054,0.905171632766724,0.153271853923798,-0.576295971870422,C
1526524116.97603,0.270891544466426,1.21950151913693,-0.92682609097582,0.881535947322845,0.147637650370598,-0.565850257873535,C
1526524116.99191,0.307382238656118,1.20790080837575,-0.986052425482638,1.29121541976929,0.0684941038489342,-0.592167258262634,C
1526524116.99268,0.325836955608061,1.19965276282427,-1.02674657930687,1.28252565860748,0.065534420311451,-0.586913228034973,C
1526524117.00841,0.330747334012717,1.19300649949019,-1.05083649331485,1.32491254806519,0.0063864616677165,-0.295534759759903,C
1526524117.02459,0.326492265734031,1.18696954052372,-1.06137472929347,1.15805101394653,-0.0221176724880934,-0.298371523618698,C
1526524117.02551,0.316626577976871,1.18222537371139,-1.06229662179961,1.16018772125244,-0.0239046569913626,-0.293027609586716,C
1526524117.0417,0.304642857534323,1.17972634283141,-1.05837983602894,0.848189175128937,-0.0398384742438793,-0.416281044483185,C
1526524117.05703,0.293690674976399,1.17921857278234,-1.05347042240796,0.852042555809021,-0.0400321446359158,-0.414601385593414,C
1526524117.05787,0.285915294470449,1.18024277420108,-1.04946521084211,0.855153322219849,-0.0396417453885078,-0.414661824703217,C
1526524117.07296,0.27955704538195,1.1825355880253,-1.04448916489655,0.638428092002869,-0.0434862673282623,-0.313837230205536,C
1526524117.08721,0.272643875027245,1.18552225030371,-1.03754159538923,0.515821218490601,-0.0630201101303101,-0.137137740850449,C
1526524117.08843,0.263790011155275,1.18917573942587,-1.02797477943739,0.519913077354431,-0.0616532675921917,-0.139526918530464,C
1526524117.10313,0.252783559205026,1.19354251114191,-1.01573642507999,0.367526710033417,-0.0531541146337986,-0.0561034716665745,C
1526524117.11857,0.241633014222052,1.1985640141683,-1.00258410872309,0.203346535563469,-0.0364387594163418,0.0212054327130318,C
1526524117.11922,0.232159606232996,1.20417482441324,-0.990044836094872,0.207899570465088,-0.0344128049910069,0.0169221330434084,C
1526524117.13447,0.224406104720305,1.21038667946264,-0.978635372286825,0.211898773908615,-0.0322041064500809,0.0118907708674669,C
1526524117.15069,0.217793123145382,1.21736051375572,-0.968097152612997,0.11017831414938,-0.0467200204730034,0.0684001967310905,C
1526524117.15148,0.211686746505874,1.22558667371016,-0.958336791452792,0.113867320120335,-0.0439045280218124,0.0612937994301319,C
0,0,0,0,0,0,0,0,0
1526524118.01471,-3.04224434447792,1.46715871009286,2.35098527485959,-0.00235811690799892,0.00853518396615982,0.0426420345902443,C
1526524118.01606,-3.04325149421823,1.46746067964727,2.35614706021944,-0.00249128974974155,0.00856637861579657,0.0429306551814079,C
1526524118.02474,-3.04372694379238,1.46731360149466,2.35943459604863,0.0856547355651855,0.0199189931154251,0.144342765212059,C
1526524118.04178,-3.03344085602405,1.47032800592415,2.35067858317176,-0.0090710362419486,-0.0184856913983822,0.372347801923752,C
1526524118.04241,-3.01417239834992,1.47722423822366,2.33454055956437,-0.00802406296133995,-0.0178176686167717,0.379383027553558,C
1526524118.05722,-2.99234084041733,1.48455197652726,2.31578653933656,-0.0423062480986118,-0.00814178772270679,-0.0221000164747238,C
1526524118.07414,-2.97746258404528,1.49006770385554,2.30239069060777,-0.0419384837150574,-0.00768183497712016,-0.0164773873984814,C
1526524118.0759,-2.96624198981984,1.49355157267031,2.29226014364023,-0.0416525304317474,-0.00740694161504507,-0.0129047883674502,C
1526524118.08909,-2.95435392659582,1.49530657536406,2.28114503275064,-0.0114433597773314,-0.0169776380062103,-0.0310548711568117,C
1526524118.10396,-2.94644451743641,1.49660179314323,2.27434382521548,-0.0218045841902494,-0.0383804254233837,0.0789833962917328,C
1526524118.10719,-2.94063808892443,1.49782211664482,2.26986280797741,-0.0216255132108927,-0.0382907092571259,0.0802606120705605,C
1526524118.12019,-2.93985334027344,1.49868624217464,2.27015818132274,-0.0490096025168896,-0.0328264683485031,0.0574500486254692,C
1526524118.13605,-2.94468546329952,1.49919147191519,2.27567247953876,-0.0494494363665581,-0.032790195196867,0.0578753054141998,C
1526524118.1368,-2.95949267228619,1.4994313723677,2.29086584774419,-0.0505331605672836,-0.0327730588614941,0.0579110831022263,C
1526524118.15147,-2.98080200739508,1.49954339237761,2.31257113686451,-0.032745823264122,-0.0312086809426546,0.0529251173138618,C
1526524118.16758,-3.00054054113762,1.49947389368591,2.33305842966746,0.00768376048654318,-0.00740992045029998,0.0627312734723091,C
1526524118.16837,-3.02022698690428,1.49911609488915,2.35373466949169,0.00633615395054221,-0.00743548152968287,0.0621934682130814,C
1526524118.18346,-3.03448243505096,1.49843130709746,2.36881565665584,0.0384454131126404,-0.00304445181973279,0.0603298805654049,C
1526524118.19924,-3.04142386487385,1.49782263649161,2.3763715009662,0.00964084733277559,-0.0047213351354003,0.0656706392765045,C
1526524118.20021,-3.0491996696444,1.49722666608033,2.38454054901961,0.00913138594478369,-0.00476496340706944,0.0650243014097214,C
1526524118.21583,-3.05939078386109,1.49662709789318,2.39510035239926,0.00843425653874874,-0.00480921287089586,0.0643630847334862,C
1526524118.23143,-3.06915211692569,1.49606847251323,2.40527485260316,0.0283375196158886,-0.00767363933846354,0.0658115297555923,C
1526524118.23229,-3.07997093988049,1.49576793067575,2.41651282002985,0.0275500789284706,-0.00769612239673734,0.0654582977294922,C
1526524118.2472,-3.08927090841599,1.49552801087582,2.42613852365284,0.0497853197157383,0.00824655778706074,0.0766085162758827,C
1526524118.26298,-3.09868870330512,1.49540011509993,2.43597970117345,0.0406147725880146,0.00208764057606459,0.0935982763767242,C
1526524118.26374,-3.10883369296065,1.49548416211645,2.44671882583035,0.0398484095931053,0.00209396798163652,0.0936531350016594,C
1526524118.27901,-3.11877630120143,1.4957964276481,2.45760912777857,0.0764012411236763,-3.40747210429981e-05,0.0894423127174377,C
1526524118.29469,-3.132086460325,1.49623750147409,2.47222394447057,0.0753998756408691,-1.12223392534361e-06,0.0898660197854042,C
1526524118.29569,3.13782831754824,1.49670157485722,2.48703573397874,0.074413113296032,3.33390999003313e-05,0.0903259664773941,C
1526524118.31074,3.12682419818683,1.49691404875805,2.49964862730378,0.121743157505989,-0.0036740992218256,0.0467526614665985,C
1526524118.32669,3.11775348142594,1.49678647529096,2.51053705582521,0.120796039700508,-0.00818486697971821,0.0125044854357839,C
1526524118.32746,3.10429744873149,1.4964436526708,2.52591853454441,0.11978879570961,-0.00821027439087629,0.0121932523325086,C
1526524118.3428,3.08715592636217,1.4964694542787,2.54554471755057,0.127261489629745,-0.00871189869940281,0.0542847737669945,C
1526524118.35813,3.06468849693,1.49690682782836,2.5710543758746,0.158802837133408,0.0139645282179117,-0.00020931258040946,C
1526524118.35891,3.03676408596318,1.49737473830772,2.60224211516214,0.156798794865608,0.0139989610761404,0.000441819778643548,C
1526524118.37614,3.00556452638253,1.49788938186292,2.63684270690502,0.154596403241158,0.0140365809202194,0.00122528825886548,C
1526524118.39031,2.97358278451455,1.49836854820323,2.67235481871925,0.206405028700829,0.0512722991406918,-0.0390884652733803,C
1526524118.39112,2.95049163182062,1.49886829966093,2.69997387916963,0.204855620861053,0.0513083375990391,-0.0383006706833839,C
1526524118.40749,2.93723427244402,1.49913343274095,2.7189443172264,0.291713148355484,0.0842405632138252,-0.06634271889925,C
1526524118.42208,2.93357340992874,1.49898734889797,2.72964415873504,0.329848110675812,0.129319816827774,-0.0636850446462631,C
1526524118.4231,2.93882499449857,1.49870641974856,2.73297947532726,0.330160558223724,0.129299625754356,-0.0640363469719887,C
1526524118.43747,2.95382080269847,1.49835112999391,2.72771280478846,0.356208920478821,0.172425821423531,-0.0363195203244686,C
1526524118.45378,2.9788948076972,1.49806499373114,2.71285052227156,0.357949733734131,0.172405064105988,-0.0369175337255001,C
1526524118.4559,3.01472668829754,1.49768347680996,2.68720358697827,0.360478013753891,0.172377273440361,-0.0376706272363663,C
1526524118.46953,3.06304483429705,1.4968978202168,2.64868277884385,0.341954469680786,0.208421871066093,-0.0245466139167547,C
1526524118.48579,3.12746110726449,1.49597673123409,2.59444768709514,0.298397451639175,0.262461096048355,0.0315046049654484,C
1526524118.4866,-3.08194552558402,1.49487684106619,2.53135565810252,0.303975075483322,0.26237827539444,0.0305352546274662,C
1526524118.50121,-2.99967709690503,1.49388497386904,2.46055322102093,0.281802654266357,0.305164515972137,0.108781859278679,C
1526524118.51746,-2.90040949769224,1.49302814869179,2.37346782322017,0.254503011703491,0.342268705368042,0.0718061476945877,C
1526524118.51858,-2.78156733656356,1.49123776170546,2.26695371174874,0.263945400714874,0.342128038406372,0.0728679373860359,C
1526524118.53284,-2.6552586952676,1.48765407788271,2.15231058703935,0.274761587381363,0.341836810112,0.0738298743963242,C
1526524118.54875,-2.5316115467638,1.48265484043898,2.0398345886238,0.0915948823094368,0.380059689283371,0.0969759821891785,C
1526524118.54969,-2.41491667958717,1.47697302975528,1.93461916453921,0.103411965072155,0.379543483257294,0.0991089418530464,C
1526524118.56492,-2.31006598300029,1.47166429563682,1.84259421505865,-0.104904785752296,0.419040650129318,0.151291087269783,C
1526524118.58084,-2.21236126534365,1.46793676686657,1.75974594679068,-0.138716027140617,0.434381365776062,0.191497132182121,C
1526524118.58164,-2.11157035500452,1.46528025824436,1.67537242971024,-0.130685523152351,0.434105098247528,0.198726043105125,C
1526524118.59682,-2.00529302373599,1.46248766374552,1.58605397715058,-0.0400239080190659,0.417159765958786,0.139966711401939,C
1526524118.61259,-1.89524178176594,1.4584714066253,1.49233492559456,-0.031835850328207,0.41671758890152,0.149738535284996,C
1526524118.61319,-1.788167139617,1.45211057051271,1.39964268899974,-0.0224558506160975,0.415984511375427,0.159934505820274,C
1526524118.62818,-1.69469374706718,1.44195533125102,1.31720893363321,0.0692113563418388,0.392437785863876,0.0703949481248856,C
1526524118.64427,-1.62182486662906,1.42805907829841,1.25195187438632,-0.0513677820563316,0.34568053483963,0.0230481401085854,C
1526524118.64526,-1.5682978623179,1.41121186473726,1.20281420902669,-0.0345282033085823,0.343143612146378,0.0307009797543287,C
1526524118.65988,-1.53293329684666,1.39229402546336,1.16941145716739,-0.31868040561676,0.268137812614441,-0.0135882515460253,C
1526524118.6771,-1.51148597388901,1.37310500292653,1.14837807708422,-0.662917494773865,0.191368579864502,0.0838466808199883,C
1526524118.67824,-1.49500905278339,1.35537156014269,1.13245547213185,-0.645829498767853,0.187731623649597,0.088389553129673,C
1526524118.69191,-1.47556288969359,1.34048691580062,1.11489312230731,-0.631733894348145,0.184441760182381,0.0939115136861801,C
1526524118.70898,-1.44848166248542,1.32854569296602,1.09114259336928,-0.765276253223419,0.104681149125099,0.248430714011192,C
1526524118.70954,-1.41267493755823,1.31918107523632,1.05952726026161,-0.757509469985962,0.10239215195179,0.258365422487259,C
1526524118.72357,-1.36964231115409,1.31119707039632,1.02107922769334,-0.710289776325226,0.0496075488626957,0.291811645030975,C
1526524118.74093,-1.32255470977565,1.30354419990454,0.977981466296697,-0.694635629653931,0.0145795466378331,0.190663129091263,C
1526524118.74201,-1.27464849084988,1.29616011491104,0.932428552239346,-0.691231548786163,0.0126032652333379,0.204923704266548,C
1526524118.75595,-1.22804358804803,1.28899556186229,0.886557062855972,-0.688712120056152,0.0106355743482709,0.219237565994263,C
1526524118.77131,-1.1835767203932,1.28220033771767,0.841294703189556,-0.687392711639404,-0.0555615201592445,0.160358771681786,C
1526524118.77509,-1.13951228213681,1.27643744856324,0.795141987515339,-0.687368333339691,-0.0572175867855549,0.174170687794685,C
1526524118.78714,-1.09361625567603,1.27155823137032,0.745990439835155,-0.78354811668396,-0.0996449291706085,0.234390050172806,C
1526524118.8028,-1.04572293619245,1.26735835435923,0.693454548550945,-0.839441657066345,-0.133179038763046,0.24208328127861,C
1526524118.80356,-0.995377346639515,1.26350611751428,0.637470042302525,-0.844224631786346,-0.134337171912193,0.25690421462059,C
1526524118.81915,-0.941483760967253,1.26053950808987,0.577169782071356,-0.973535180091858,-0.229446470737457,0.275340229272842,C
1526524118.83535,-0.879754913317286,1.25866372652642,0.50768982153878,-0.983714759349823,-0.230020821094513,0.291362136602402,C
1526524118.83611,-0.802529469036466,1.25765416963122,0.421291439962812,-0.998828828334808,-0.23033133149147,0.309702605009079,C
1526524118.85058,-0.702974811877196,1.2562976857619,0.312311338984717,-1.23505830764771,-0.230719551444054,0.426492929458618,C
1526524118.86643,-0.580086762977005,1.25210267970282,0.181206113076903,-1.10895240306854,-0.145340412855148,0.403412967920303,C
1526524118.86719,-0.442036176203979,1.24258041101935,0.036196251218518,-1.14278829097748,-0.148367002606392,0.432712942361832,C
1526524118.88225,-0.301632819937803,1.22740882782904,-0.110117203452977,-0.700760841369629,-0.0207980312407017,0.0998904779553413,C
1526524118.89821,-0.168855755426982,1.20757963627367,-0.248229677044112,-0.212342068552971,0.0590111464262009,-0.309850007295609,C
1526524118.8992,-0.050530677849479,1.18577980756104,-0.373041613066154,-0.253078997135162,0.051044549793005,-0.284984886646271,C
1526524118.9145,0.0492143198816123,1.16589427179369,-0.483235723359027,-0.291428059339523,0.0433933027088642,-0.266628175973892,C
1526524118.9306,0.129428012067934,1.14969504442311,-0.578278932935085,0.365393698215485,0.0389058068394661,-0.568835318088531,C
1526524118.93146,0.191592234820004,1.13774616475308,-0.65864680591345,0.338242799043655,0.0339564792811871,-0.562219262123108,C
1526524118.94588,0.236535460623141,1.13010312688916,-0.724274980297789,0.883148610591888,0.0152807692065835,-0.496260643005371,C
1526524118.96192,0.266471873422268,1.12553079758013,-0.775189534205598,1.07744157314301,-0.0300293006002903,-0.222641333937645,C
1526524118.96269,0.285209604267949,1.12194629790795,-0.813469596530009,1.06876707077026,-0.0315789319574833,-0.221737653017044,C
1526524118.97781,0.295676852191543,1.11781811002366,-0.840574084098121,1.01683902740479,-0.0851204991340637,-0.0872666388750076,C
1526524118.99336,0.30096896932102,1.11263235780361,-0.859076494189483,1.01324474811554,-0.0874020978808403,-0.0834998488426208,C
1526524118.99426,0.303379536879267,1.10778177051735,-0.871941341067037,1.01092886924744,-0.0895580649375916,-0.0796704739332199,C
1526524119.00933,0.303691147210867,1.104866466624,-0.880877542462152,0.904563069343567,-0.0847299471497536,-0.328109890222549,C
1526524119.02612,0.303605887375743,1.10465972882956,-0.887647962905599,0.777911722660065,-0.078902430832386,-0.403331130743027,C
1526524119.02691,0.30448132657529,1.10719425153106,-0.893190138250863,0.778215527534485,-0.0777661949396133,-0.405610293149948,C
1526524119.04395,0.305971950311975,1.11181336843597,-0.897399971651244,0.658937394618988,-0.0728873237967491,-0.200068518519402,C
1526524119.05768,0.30708651252101,1.11756064510245,-0.899549719495871,0.47692084312439,-0.0730414316058159,-0.0389218926429749,C
1526524119.05925,0.30757228007299,1.1239737740791,-0.900569472319316,0.478466331958771,-0.0702517777681351,-0.0444898381829262,C
1526524119.07614,0.307026994275678,1.13070587873475,-0.900504615823355,0.480528742074966,-0.0673632845282555,-0.050215121358633,C
