Time,Roll,Pitch,Yaw,AccelX,AccelY,AccelZ,Letter,Name
1526517921.86742,-0.000944969315205813,0.00694005049616506,1.04451877790278,0.0117329098284245,0.00750456983223557,-0.00568553945049644,B
1526517921.86812,-0.000899583157561815,0.00691730728979547,1.04454042233377,0.0116875255480409,0.00748182740062475,-0.00568533968180418,B
1526517921.88365,-0.00122979224361295,0.0072998938729333,1.04448790390194,-0.00620127096772194,-0.00795895978808403,-0.00285027618519962,B
1526517921.89966,-0.000939283271454555,0.0071824565188507,1.04443053906851,0.00420463969931006,0.00185707735363394,0.00656556198373437,B
1526517921.90031,-0.00098309305451737,0.00712876552765492,1.04445980822131,0.00424844864755869,0.00180338777136058,0.00656590424478054,B
1526517921.91572,-0.00095749106285655,0.00719930790743998,1.04446176810303,0.0042228470556438,0.00187392835505307,0.00656542368233204,B
1526517921.93127,-0.000880958984892985,0.00732597188456018,1.0444306489079,-0.00595500227063894,-0.0031263642013073,0.0045351549051702,B
1526517921.93284,-0.000835858735633698,0.00739686912648192,1.04440024887342,-0.0060001015663147,-0.0030554689001292,0.00453467201441526,B
1526517921.94716,-0.000568302404289175,0.00749135333868602,1.04445788650705,0.00413884315639734,0.000456981506431475,0.000414283334976062,B
1526517921.96463,-0.000770943475968822,0.0076359138097957,1.04439061590306,-0.00373042188584805,-0.000420801021391526,-0.00332534895278513,B
1526517921.96535,-0.000744172145055314,0.00767016073737468,1.04431567673016,-0.00375719252042472,-0.000386555097065866,-0.00332559086382389,B
0,0,0,0,0,0,0,0,0
1526517925.91815,-0.380571830809719,0.983757443545248,2.14328481116223,0.0434079840779305,-0.0155600477010012,-0.0337819419801235,B
1526517925.93498,-0.381180811999111,0.985100651470293,2.14295472195338,0.0433049015700817,-0.0148167982697487,-0.0349458605051041,B
1526517925.93581,-0.380761521996881,0.983894545884897,2.14232510502616,0.0434631109237671,-0.0154841151088476,-0.0339269563555717,B
1526517925.95026,-0.378598359689767,0.980840880490933,2.14105929602564,-0.00813276041299105,-0.0488715693354607,0.243352323770523,B
1526517925.96623,-0.374988328182262,0.977758663878102,2.13872183310031,-0.0867608711123466,0.00145750411320478,0.0579649694263935,B
1526517925.96704,-0.370712419723122,0.975743864305256,2.13583973956853,-0.0883815288543701,0.000329785369103774,0.0603916943073273,B
1526517925.98221,-0.366304721987204,0.975409391310661,2.13259829139279,-0.0912738516926765,-0.00707515794783831,-0.058805774897337,B
1526517925.99804,-0.362180539350592,0.976908423166527,2.12923027293625,-0.052828885614872,-0.0208685658872128,-0.01261892542243,B
1526517925.9989,-0.358034845671172,0.980022029010652,2.12611891671008,-0.0559051968157291,-0.019130252301693,-0.0142208281904459,B
1526517926.01501,-0.353464545826018,0.983796813575001,2.12365484661017,-0.0593780279159546,-0.0170336030423641,-0.0162790901958942,B
0,0,0,0,0,0,0,0,0
1526517986.27985,0.000906334485312092,1.41930962738912,1.10663592605438,-0.00268499087542295,-0.00504349311813712,-0.0258956793695688,B
1526517986.2936,0.00574449912124023,1.41909620803643,1.10367400828482,-0.00535418186336756,0.00557491276413202,-0.0293492469936609,B
1526517986.29424,0.0144743628804365,1.42129409141589,1.09786456154601,-0.0066419062204659,0.00590466661378741,-0.0315353609621525,B
1526517986.31026,0.0187817703998104,1.42208975009272,1.0952934706546,0.0415289960801601,-0.0132947629317641,0.10899418592453,B
1526517986.32605,0.0179060887218801,1.4209443239831,1.09621061261152,0.0293093323707581,-0.0124275200068951,0.0670992806553841,B
1526517986.32669,0.0155342017683178,1.41880153330188,1.0989143231004,0.0296304803341627,-0.0127496905624866,0.0692233815789223,B
1526517986.34182,0.0127264440100513,1.41668900661239,1.10200776434871,0.0300289895385504,-0.0130717540159822,0.071317046880722,B
1526517986.3589,0.0104437394303457,1.41531921225606,1.10460286631809,-0.00242591486312449,0.012946916744113,-0.0447419285774231,B
1526517986.35961,0.00901496417145809,1.41492859243252,1.10627383349155,-0.00220815627835691,0.0128863528370857,-0.0443538948893547,B
1526517986.37329,0.00892645428792183,1.41524534096335,1.10642740258551,-0.018671115860343,0.00381071888841689,-0.0410656034946442,B
1526517986.39162,0.0106134712212699,1.4156434181158,1.1045902044336,-0.000694036425556988,-0.00819738954305649,0.0354276224970818,B
1526517986.39241,0.0122727552934397,1.41549575924602,1.10254059554023,-0.000952221103943884,-0.00822021812200546,0.0355705581605434,B
1526517986.40545,0.012746014016127,1.41473379967761,1.10200638697054,0.0135066136717796,0.00127467443235219,0.029776306822896,B
1526517986.42155,0.0122134000548954,1.41356235586399,1.10286184963375,0.0135752595961094,0.00109191937372088,0.0309343542903662,B
1526517986.42472,0.0109002840634329,1.41222983070385,1.10438611639819,0.0137665187940001,0.000882386579178274,0.032252598553896,B
1526517986.43689,0.00789522349701646,1.41127508705786,1.10732261149768,0.0219239927828312,-0.0130627658218145,-0.023761335760355,B
1526517986.45282,0.00442054354093654,1.41071592409166,1.11045335574366,-0.00447354232892394,-0.012846564874053,-0.0375796817243099,B
1526517986.45357,0.00206687459188621,1.4106221647147,1.11229643311396,-0.00409856671467423,-0.0128615135326982,-0.037485908716917,B
1526517986.46869,0.00221253990479469,1.41082227676359,1.11188443052404,-0.0215316396206617,-0.0139740267768502,-0.0158939585089684,B
1526517986.48482,0.004365909046984,1.41098064579791,1.10971819125152,-0.0218739714473486,-0.0139488121494651,-0.0160514339804649,B
1526517986.48559,0.00694044217596542,1.4107914163445,1.10709637869431,-0.0222849622368813,-0.0139789432287216,-0.0158669408410788,B
1526517986.50053,0.00908181603381309,1.41037788351998,1.10486975896525,-0.000870796269737184,-0.0183631498366594,-0.001652249135077,B
1526517986.51623,0.0101513634898046,1.4099013613451,1.1038192951106,0.0214755684137344,-0.0128394020721316,-0.00080206070560962,B
1526517986.51699,0.00928509555221878,1.40918867314225,1.10479574235975,0.0216078087687492,-0.0129538271576166,-9.72998095676303e-05,B
1526517986.53278,0.00699318221732837,1.40842525566486,1.10731352000304,0.031401239335537,-0.0180513169616461,-0.00178229983430356,B
1526517986.54808,0.00358988604563651,1.4078828474128,1.11094225768866,-0.00538877444341779,-0.00989940110594034,-0.0318227559328079,B
1526517986.54884,3.04758786482663e-05,1.40784591592398,1.11494457608451,-0.00481146248057485,-0.00990539230406284,-0.0317852683365345,B
1526517986.56461,-0.000934115419212438,1.40821598344627,1.1161662322957,-0.00465531786903739,-0.00984542351216078,-0.0321505144238472,B
1526517986.57979,-0.000601844065515108,1.4088430197978,1.11599445715672,-0.00622009346261621,-0.0172056704759598,-0.0256739351898432,B
1526517986.58055,2.77128444057284e-05,1.4095017883276,1.11546317941348,-0.00632158946245909,-0.0170996598899364,-0.0263240896165371,B
1526517986.59561,-0.000627398525640154,1.40986640182675,1.11633884373242,0.0154203558340669,0.00178817519918084,0.00146845320705324,B
1526517986.6116,0.0125476047759652,1.40969847253,1.10374050789357,0.026261929422617,-0.00980490911751986,-0.00254403450526297,B
1526517986.61235,0.00768410927643342,1.4095489743908,1.10904386578615,0.0270408689975739,-0.00982889998704195,-0.00238858675584197,B
1526517986.62705,0.00641447112282678,1.40831353217564,1.11084727608045,0.00897211115807295,-0.00363457016646862,-0.0142446644604206,B
1526517986.64465,0.000180850323600209,1.4085282935661,1.11758768556345,0.00998054817318916,-0.00359985115937889,-0.014453275129199,B
1526517986.64552,-0.00455697128219512,1.40883978549105,1.12275384505049,0.0107445726171136,-0.00354957557283342,-0.0147623550146818,B
1526517986.65894,-0.00824792542962001,1.40944241432754,1.12682455937784,-0.00128420011606067,-0.00442914385348558,-0.0156660918146372,B
1526517986.67543,-0.0214080490621032,1.4092683370513,1.14002900364699,-0.0205593574792147,0.00126492092385888,-0.0121687334030867,B
1526517986.67622,-0.0209544335896075,1.41018328096972,1.13957028019304,-0.0206512156873941,0.00141165510285646,-0.0130700906738639,B
1526517986.69215,-0.0201256749907639,1.41079048595464,1.13864407486055,-0.0183696411550045,-0.00418294873088598,0.0359549149870872,B
1526517986.70717,-0.018559347396523,1.41092930529548,1.13702712437027,-0.000662097183521837,-0.00815864372998476,0.0439861714839935,B
1526517986.70785,-0.0174346972518558,1.41060619883272,1.13593898743526,-0.000835536746308208,-0.00821013003587723,0.0443083234131336,B
1526517986.72551,-0.0174767618744451,1.40991714179781,1.13615162602335,-0.000816941203083843,-0.00832027290016413,0.0449882969260216,B
1526517986.73889,-0.018564451947444,1.40919772929911,1.13751383722523,0.0138968117535114,-0.0137153090909123,0.0169780757278204,B
1526517986.73968,-0.0200137214722202,1.40870667996893,1.13909158146255,0.0141396494582295,-0.0137944361194968,0.0174581129103899,B
1526517986.75489,-0.0209447882218506,1.40852995897596,1.1398702407173,-0.0044900425709784,-0.0233139377087355,-0.00506041897460818,B
1526517986.77068,-0.0247340430922883,1.41053621173278,1.14313572193661,-0.00836731027811766,-0.0195738337934017,0.0224107056856155,B
1526517986.77197,-0.0236086035041668,1.41007541597071,1.14149851122168,-0.00853611156344414,-0.0196474716067314,0.0228697936981916,B
1526517986.7864,-0.022732364054322,1.40946266897322,1.1403216956061,0.0133711406961083,-0.00248802360147238,-0.00313362176530063,B
1526517986.8023,-0.0238963515777031,1.40900503632932,1.14135157601672,0.0135688586160541,-0.002561638597399,-0.0026864365208894,B
1526517986.8033,-0.0267927592791815,1.40876050838828,1.14407577363623,0.0140417451038957,-0.00260105822235346,-0.00245701731182635,B
1526517986.81794,-0.0315139018040114,1.40864002434936,1.14849164079197,0.0184078924357891,-0.0111043900251389,-0.0230055153369904,B
1526517986.83454,-0.0361327992458529,1.40860843215406,1.15298422299466,0.00265954621136189,-0.0120402770116925,-0.000965883547905833,B
1526517986.83537,-0.0398074773901902,1.40858725071375,1.15655929935054,0.00325332907959819,-0.0120436968281865,-0.000967521918937564,B
1526517986.84992,-0.0419501456635515,1.40846661532952,1.15848682881311,-0.011395319364965,-0.0124904327094555,-0.0026479959487915,B
1526517986.86595,-0.0493926776318149,1.40838091692676,1.16558871622239,-0.00164463359396905,-0.0117108300328255,-0.000848424853757024,B
1526517986.86768,-0.0494191718223087,1.40809197309341,1.16543346656655,-0.00162626919336617,-0.0117575936019421,-0.000563850102480501,B
1526517986.88155,-0.0493429018842213,1.40762456148895,1.16511751904809,-0.00161586015019566,-0.0118334162980318,-0.000102580925158691,B
1526517986.89786,-0.0505901236140942,1.40706951764679,1.16612345029592,0.013720391318202,-0.0220860876142979,-0.00960603822022676,B
1526517986.89876,-0.0517839501420919,1.40661953542374,1.16714558040636,0.0139377051964402,-0.0221595335751772,-0.009172641672194,B
1526517986.91342,-0.0464266864412114,1.40549579083806,1.16188192196411,0.0142285069450736,-0.027898021042347,-0.0134391961619258,B
1526517986.92927,-0.0370332959779731,1.40428101713398,1.15294233303867,0.0245541092008352,-0.0510020814836025,-0.019089674577117,B
1526517986.92975,-0.0409832740404577,1.40408375062042,1.15732523014601,0.0252162776887417,-0.0510347969830036,-0.0189208351075649,B
1526517986.94511,-0.0352586477447213,1.4038687953886,1.15242276755781,0.0175758805125952,-0.0885765925049782,-0.0180776976048946,B
1526517986.96154,-0.04196182329261,1.40452253792707,1.15912886542303,0.0186617579311132,-0.0884681791067123,-0.0187648143619299,B
1526517986.96256,-0.0501077866926411,1.40552346535221,1.16708575917262,0.0199591070413589,-0.0883030146360397,-0.0198128242045641,B
1526517986.97693,-0.0603636551769431,1.40670919360364,1.17706064946837,0.0302860420197248,-0.139729112386703,-0.000596236495766789,B
1526517986.99279,-0.072222397580539,1.40833664129341,1.18826475745772,0.0287003386765718,-0.208602145314217,-0.0293342340737581,B
1526517986.99342,-0.0856584468054204,1.41061170171996,1.20073342293327,0.0306746698915958,-0.20823672413826,-0.0317428968846798,B
1526517987.00909,-0.10146694786474,1.41365829058435,1.21533908257944,0.013516953215003,-0.259696274995804,-0.052167970687151,B
1526517987.02579,-0.121034943781298,1.41731436214415,1.23352141529056,-0.00435320241376758,-0.316931039094925,-0.0472892560064793,B
1526517987.02646,-0.1443011558703,1.42129690075477,1.25504163969386,-0.00139373145066202,-0.316330015659332,-0.0516557618975639,B
1526517987.0409,-0.169094780119228,1.42559440901431,1.27791539108882,0.00153838074766099,-0.315699070692062,-0.0564223490655422,B
1526517987.05875,-0.194034445484683,1.43050388864082,1.30105196665561,-0.0453947521746159,-0.352109998464584,-0.0896895676851273,B
1526517987.05988,-0.219249777077696,1.436214403085,1.32462386907414,-0.0431742370128632,-0.351327627897263,-0.0959342196583748,B
1526517987.07247,-0.243595765881204,1.44333277114169,1.34721808498923,-0.0632881298661232,-0.36178070306778,-0.127473473548889,B
1526517987.08823,-0.267054611184248,1.45183624611419,1.36882259880348,-0.0393601357936859,-0.31788894534111,-0.0597673282027245,B
1526517987.09141,-0.289601242367493,1.46103170728028,1.38928377030043,-0.0393961220979691,-0.316839635372162,-0.0692574381828308,B
1526517987.10421,-0.314610771863076,1.4705292569462,1.41224322065763,-0.0397033914923668,-0.315844058990479,-0.0790541395545006,B
1526517987.12037,-0.345133862198462,1.48010759570355,1.4410191228893,0.0185245331376791,-0.269581824541092,-0.0333674065768719,B
1526517987.12133,-0.383372460156005,1.48939848744771,1.47795721122294,0.0182977914810181,-0.268783390522003,-0.0431855991482735,B
1526517987.13564,-0.430010316552239,1.49815496376579,1.52402519901467,0.057309951633215,-0.213284805417061,0.0255648717284203,B
1526517987.15203,-0.485665138332146,1.50627369333543,1.57942726889459,0.0618515983223915,-0.191121995449066,0.0157621875405312,B
1526517987.15279,-0.550765895016844,1.51395868494075,1.64443442109042,0.0614829398691654,-0.190655961632729,0.0071468772366643,B
1526517987.16758,-0.626760104884786,1.52129467143064,1.72076722733272,-0.00181597238406539,-0.15546078979969,-0.0315481498837471,B
1526517987.18384,-0.718670922167929,1.5283948059876,1.81379483781103,-0.00292985676787794,-0.155134648084641,-0.0397194810211658,B
1526517987.18485,-0.836340722879535,1.53498121224901,1.93396908696108,-0.00426187086850405,-0.154877126216888,-0.0476271994411945,B
1526517987.19987,-1.002819076793,1.54084821139188,2.10401788184369,-0.00286447745747864,-0.121145434677601,-0.0723324194550514,B
1526517987.21529,-1.23010059129186,1.54578084184474,2.33518025476417,-0.0135646965354681,-0.0801315978169441,-0.0441323593258858,B
1526517987.21606,-1.54167840877592,1.5491917391867,2.65043401352012,-0.0155461430549622,-0.0800520926713943,-0.0518612898886204,B
1526517987.23181,-1.91211925575468,1.54995693363032,3.02437146798443,0.022214537486434,-0.0137821957468987,-0.0278796888887882,B
1526517987.24697,-2.25113551579891,1.54770499738899,-2.9164879280101,0.0618634633719921,0.0783772096037865,0.0283832494169474,B
1526517987.24772,-2.48175253985621,1.54338220063707,-2.68257943380246,0.0607172884047031,0.0782680585980415,0.021250793710351,B
1526517987.26269,-2.61073459603392,1.53849462759486,-2.5505191616947,0.0602654442191124,0.0781221464276314,0.0150564461946487,B
1526517987.27871,-2.67464465320204,1.53385254619373,-2.48342079077733,0.0806680843234062,0.16318179666996,0.0461507700383663,B
1526517987.27946,-2.6993726012235,1.52963271051022,-2.45502545915181,0.081652007997036,0.16301703453064,0.0419387519359589,B
1526517987.29445,-2.71116531203493,1.52531798412313,-2.43957924487011,0.046862781047821,0.247134983539581,-0.0232037212699652,B
1526517987.31052,-2.71266910150116,1.52093907417397,-2.43470577148963,0.03633638843894,0.315911322832108,-0.0184361133724451,B
1526517987.31129,-2.70826572248948,1.51669280959299,-2.43690832920504,0.0383163243532181,0.315690696239471,-0.0221929978579283,B
1526517987.3263,-2.7082295286171,1.51209625400939,-2.43662698899294,-0.0186536870896816,0.330705612897873,-0.104131229221821,B
1526517987.34245,-2.71656827976373,1.50663688661179,-2.42965197047156,-0.0168516356498003,0.330370455980301,-0.109299056231976,B
1526517987.34395,-2.72701907288762,1.50021190806675,-2.42175065584153,-0.0148814059793949,0.329937934875488,-0.115439511835575,B
1526517987.36028,-2.73341880100908,1.49338411834376,-2.41873097993815,-0.00101091712713242,0.341716468334198,-0.107068672776222,B
1526517987.37472,-2.73232996446961,1.48694655857787,-2.42332144025315,-0.00242383661679924,0.324245452880859,-0.0351478718221188,B
1526517987.37551,-2.72291114673298,1.48156751161833,-2.43507282728938,0.000477066554594785,0.323780536651611,-0.0397266000509262,B
1526517987.39266,-2.70983349127738,1.47704072199275,-2.44872561078305,-0.0603414438664913,0.300249874591827,-0.0638325959444046,B
1526517987.40607,-2.69657342940916,1.47344546920265,-2.46076191862314,-0.0682206749916077,0.253245502710342,-0.0512618832290173,B
1526517987.4071,-2.68316988473262,1.47063962215368,-2.47148218595729,-0.0658129379153252,0.252968847751617,-0.0531970895826817,B
1526517987.42514,-2.67011632070027,1.46835028881489,-2.4809178955129,-0.0636117979884148,0.25273734331131,-0.0546409711241722,B
1526517987.43749,-2.65770951158721,1.4664843719112,-2.48939327568036,-0.0576237924396992,0.224895864725113,-0.0238554701209068,B
1526517987.43871,-2.64298641052353,1.46509425408059,-2.50095811927376,-0.0556109808385372,0.224750161170959,-0.0243464652448893,B
1526517987.45337,-2.62696359600784,1.46390054536653,-2.5151517591157,-0.0313470661640167,0.166228115558624,0.0055461535230279,B
1526517987.4694,-2.61400617647614,1.46262265426506,-2.52719602612902,-0.0889567211270332,0.121886253356934,-0.000921098166145384,B
1526517987.4702,-2.60513061524374,1.46107452778531,-2.53560138062653,-0.0873443782329559,0.121717922389507,-0.0017577693797648,B
1526517987.48551,-2.60234116621878,1.45943740505924,-2.53827838651636,-0.111118361353874,0.0823222324252129,0.0434349775314331,B
1526517987.50131,-2.60322173741576,1.45794793263838,-2.5379557490193,-0.110443443059921,0.0821556076407433,0.0421140119433403,B
1526517987.50223,-2.6066998179591,1.45654033178896,-2.53595642917576,-0.110067151486874,0.0819961205124855,0.0407105833292007,B
1526517987.5169,-2.61204543679712,1.45522671079601,-2.53300164408907,-0.149911135435104,0.0294620748609304,0.0664510056376457,B
1526517987.53309,-2.61942215482565,1.45379180123052,-2.52879990582918,-0.196872025728226,0.0186296943575144,0.0556944981217384,B
1526517987.5339,-2.62790518203717,1.45226478184962,-2.52391514642691,-0.196987256407738,0.0184502769261599,0.0538834966719151,B
1526517987.54866,-2.63817265644782,1.45145595162412,-2.51738026680839,-0.252744555473328,-0.0174122974276543,0.118537306785583,B
1526517987.56464,-2.64957959887449,1.45158548799613,-2.50993303410032,-0.277771800756454,0.00245480076409876,0.0754913091659546,B
1526517987.56553,-2.66485716525382,1.4523220841856,-2.49867280324512,-0.279715359210968,0.00254213390871882,0.0752950981259346,B
1526517987.58046,-2.68646801633696,1.4534841838268,-2.48141201744095,-0.2825046479702,0.00267882039770484,0.075184129178524,B
1526517987.59703,-2.71450018242963,1.45472100978126,-2.45817630252652,-0.26051339507103,0.0352172330021858,0.0446738004684448,B
1526517987.59794,-2.74697867718961,1.45565989221387,-2.43094525016193,-0.264320254325867,0.0353255309164524,0.0440324954688549,B
1526517987.61231,-2.78123097815734,1.45634379926006,-2.40242099725264,-0.200285449624062,0.0649754032492638,0.0492299161851406,B
1526517987.62886,-2.81507516651208,1.45709661089358,-2.37475795992628,-0.162523314356804,0.103772640228271,0.0779185146093369,B
1526517987.62935,-2.84684076363605,1.45792957564931,-2.34887936522096,-0.166195079684258,0.103866800665855,0.0776088908314705,B
1526517987.6443,-2.87791019835625,1.45896345495316,-2.32389409266604,-0.143718659877777,0.133844166994095,0.104125633835793,B
1526517987.65977,-2.91271480379998,1.46065971385455,-2.29576351642786,-0.147867947816849,0.134032040834427,0.10482057929039,B
1526517987.66041,-2.94754871123381,1.46307320893543,-2.26753798984415,-0.152073845267296,0.134294420480728,0.106371179223061,B
1526517987.67577,-2.98531181316599,1.46626572056057,-2.23635380729986,-0.10723402351141,0.153706073760986,0.121616914868355,B
1526517987.69225,-3.02963702740468,1.47041947978339,-2.19841334482676,-0.0952345877885818,0.17621037364006,0.139966711401939,B
1526517987.69279,-3.08648964025872,1.47545610803458,-2.14834628834014,-0.101187132298946,0.176702454686165,0.144496366381645,B
1526517987.70815,3.12630429032573,1.48091544605372,-2.085295133179,-0.0336293093860149,0.211860045790672,0.0895566120743752,B
1526517987.72536,3.04342535855136,1.48620877673322,-2.01026770818134,-0.0405375994741917,0.212321206927299,0.0952260792255402,B
1526517987.7259,2.95009366922047,1.49116141980098,-1.92494894938293,-0.0473980307579041,0.212727427482605,0.101209454238415,B
1526517987.73989,2.84933481384125,1.49603600786776,-1.83233259622011,0.0621596835553646,0.235854208469391,0.0654088780283928,B
1526517987.75813,2.74192778600718,1.50091108913966,-1.7334209828766,0.160893678665161,0.23580975830555,0.0153103265911341,B
1526517987.75913,2.6238055922192,1.50577091644189,-1.62456183465354,0.155902370810509,0.236137330532074,0.0231737699359655,B
1526517987.77086,2.49685161913474,1.51059903681713,-1.50748847264507,0.267264813184738,0.203526213765144,-0.0527531467378139,B
1526517987.78695,2.35600689185676,1.51518012090348,-1.37641223082998,0.299400895833969,0.158182814717293,-0.136299073696136,B
1526517987.7877,2.19593613035794,1.51892751458008,-1.22553708550921,0.296674013137817,0.15838411450386,-0.127340689301491,B
1526517987.80344,2.02614807999794,1.52152402822582,-1.06470528667349,0.294480741024017,0.158515363931656,-0.118660241365433,B
1526517987.81927,1.86435632942191,1.52345501262003,-0.911216045355289,0.401859700679779,0.137490451335907,-0.224509075284004,B
1526517987.82003,1.72376925476485,1.52544185763163,-0.777557880847032,0.402349352836609,0.137582495808601,-0.217724040150642,B
1526517987.83485,1.59858102129526,1.52782472922356,-0.657448400963205,0.458065301179886,0.063697837293148,-0.279071241617203,B
1526517987.85091,1.47748686373144,1.53018241197373,-0.539041298736667,0.420526623725891,-0.00450199982151389,-0.24795638024807,B
1526517987.85186,1.35527057906694,1.53204875720428,-0.41692453352502,0.423111110925674,-0.00442796153947711,-0.243454977869987,B
1526517987.86663,1.22616368331895,1.53308739073375,-0.285713849656905,0.423058658838272,-0.0452360436320305,-0.189792931079865,B
1526517987.88268,1.08706085625422,1.5333670360417,-0.142961587276788,0.425414800643921,-0.0452255420386791,-0.185126006603241,B
1526517987.88365,0.943949876566101,1.53286180863319,0.00462158957765602,0.427826792001724,-0.045244574546814,-0.180283099412918,B
1526517987.89821,0.804234161486542,1.53219751231852,0.149425670271055,0.442785233259201,-0.0625276789069176,-0.227107807993889,B
1526517987.91385,0.663500501061375,1.53186095425597,0.295951893622709,0.459547102451324,-0.0957133322954178,-0.283679187297821,B
1526517987.91464,0.517052603667062,1.53213744082732,0.448932066680528,0.464415401220322,-0.0957026034593582,-0.280749291181564,B
1526517987.93007,0.34026594782388,1.53339661817366,0.633458210232123,0.425326377153397,-0.125394105911255,-0.294342637062073,B
1526517987.94581,0.113957725862001,1.53488484505232,0.86887868843264,0.212103858590126,-0.168796598911285,-0.235828742384911,B
1526517987.94657,-0.151622679857492,1.53525726387482,1.14482037623283,0.221553295850754,-0.1687833070755,-0.236375689506531,B
1526517987.96278,-0.416008310616748,1.53425008036273,1.42015297970837,0.230952024459839,-0.168819591403008,-0.238077878952026,B
1526517987.97767,-0.654090370697219,1.53253916282959,1.66935306660766,-0.045515201985836,-0.187972322106361,-0.180767059326172,B
1526517987.97843,-0.860943047335662,1.53050610263436,1.88696070679406,-0.03823646530509,-0.188052147626877,-0.184869661927223,B
1526517987.99357,-1.03384240240714,1.52840822578294,2.07008071532334,-0.203959748148918,-0.228376269340515,-0.0365974046289921,B
1526517988.0093,-1.17044062316033,1.52663607449395,2.21651624907934,-0.298181712627411,-0.237776055932045,0.124215573072433,B
1526517988.01007,-1.27541225584321,1.52505393188042,2.33163229478046,-0.295090615749359,-0.237847149372101,0.120321191847324,B
1526517988.02606,-1.34825044177823,1.52389075494799,2.41529604034414,-0.349699467420578,-0.220933243632317,0.243655785918236,B
1526517988.04137,-1.38789199635228,1.52341620635459,2.46598057399205,-0.348859161138535,-0.220955595374107,0.241921454668045,B
1526517988.04252,-1.39304346146221,1.5234179229735,2.48174391176419,-0.348817080259323,-0.220955520868301,0.241681113839149,B
1526517988.05825,-1.384310850194,1.5234116666924,2.48257235068433,-0.304925262928009,-0.17789551615715,0.251503705978394,B
1526517988.07398,-1.38650142872651,1.52296066835759,2.49290605129513,-0.195637598633766,-0.143859356641769,0.167835578322411,B
1526517988.0749,-1.40342106925084,1.52148626779808,2.51620190300666,-0.19404399394989,-0.143930941820145,0.167284354567528,B
1526517988.09093,-1.42897315228983,1.51915642669944,2.54662906540817,-0.227023229002953,-0.130391880869865,0.188112616539001,B
1526517988.10499,-1.4523642849264,1.51644125263041,2.57380889685477,-0.325385749340057,-0.0904813930392265,0.17835521697998,B
1526517988.10588,-1.47252228925934,1.51380388058273,2.59687976462969,-0.322646737098694,-0.0906281471252441,0.177524879574776,B
1526517988.12053,-1.49008811857057,1.51163921171917,2.61641927722443,-0.320403337478638,-0.0907537862658501,0.176702544093132,B
1526517988.13654,-1.50313976024879,1.51022385090756,2.62999778726835,-0.41175577044487,-0.0716886892914772,0.174456879496574,B
1526517988.13735,-1.5072830637851,1.51003490134126,2.63311329378889,-0.411551088094711,-0.0717001408338547,0.174218565225601,B
1526517988.15233,-1.50149262657318,1.51109672036004,2.62502650224206,-0.452960759401321,-0.0594597160816193,0.141216591000557,B
1526517988.16848,-1.48958215615765,1.51323698790958,2.61050263927455,-0.39223176240921,-0.031456496566534,0.0782905742526054,B
1526517988.16929,-1.47279759527326,1.51609037905936,2.59089197439822,-0.395153373479843,-0.0312964133918285,0.0789735242724419,B
1526517988.18445,-1.45065991818434,1.51933346595079,2.56542801050333,-0.309038043022156,0.00900627952069044,0.0490879528224468,B
1526517988.20009,-1.42202598666108,1.52269834497874,2.53298667527079,-0.312559068202972,0.00917371548712254,0.0500494129955769,B
1526517988.20089,-1.3898713433113,1.52598302655857,2.49643133187417,-0.316040337085724,0.00932625215500593,0.0509839579463005,B
1526517988.21632,-1.36373634872218,1.52975486345027,2.46558374749698,-0.239768967032433,0.0326967351138592,-0.0110656507313251,B
1526517988.23213,-1.33255661960672,1.53405737405445,2.4293803534127,-0.176175057888031,0.0573696345090866,0.00254938961006701,B
1526517988.233,-1.28636423480064,1.53856432237316,2.37757593210638,-0.180936679244041,0.0575250275433064,0.00292435986921191,B
1526517988.24746,-1.20951040903275,1.54289258335123,2.29478199024737,-0.0926296636462212,0.0911176726222038,-0.000391842710087076,B
1526517988.26341,-1.10037843675222,1.54669928318687,2.17917324972021,-0.0972511172294617,0.0912166386842728,0.000667234358843416,B
1526517988.264,-0.972927780374949,1.54967959532393,2.04440471592986,-0.10127616673708,0.0912840068340302,0.00163143896497786,B
1526517988.27934,-0.851734401628907,1.55224842832142,1.91502651245913,-0.04738524928689,0.139369621872902,-0.0686246529221535,B
1526517988.29554,-0.734194375037418,1.55452863939814,1.78926389922798,-0.0209769140928984,0.170216798782349,-0.062875047326088,B
1526517988.29634,-0.601048698161955,1.55626846380818,1.64838855782663,-0.0236602816730738,0.170243591070175,-0.0629698410630226,B
1526517988.31052,-0.439471952624182,1.55711716500292,1.47961518411898,-0.00423576449975371,0.159803286194801,0.00572610134258866,B
1526517988.32761,-0.258771266262835,1.55719933551119,1.29212234085407,0.0220797304064035,0.19891269505024,-0.0305572953075171,B
1526517988.32858,-0.104322943490876,1.55677999306796,1.13087653829337,0.0200599897652864,0.198906898498535,-0.0297614969313145,B
1526517988.34381,0.00622223209919228,1.55626706289518,1.0131187753797,0.0185100641101599,0.198899582028389,-0.0291726998984814,B
1526517988.35939,0.0812316175337275,1.55519798161365,0.930665781915786,0.0261086337268353,0.215027272701263,0.0160955954343081,B
1526517988.35994,0.121485825953061,1.55345385494575,0.882637035378661,0.0252726878970861,0.214998543262482,0.0177631061524153,B
1526517988.3754,0.136585268611135,1.5516274434882,0.859593204523532,0.0572198182344437,0.195296630263329,0.0198589470237494,B
1526517988.39177,0.138613673325176,1.5492602677886,0.848994574810029,0.0681152865290642,0.174008220434189,0.0371664687991142,B
1526517988.39231,0.140823872821737,1.54603082755231,0.837959712380368,0.0676149949431419,0.173933461308479,0.0403564535081387,B
1526517988.40654,0.141013895619808,1.54228561722843,0.829990524886607,0.0663975030183792,0.194188937544823,0.0144299427047372,B
1526517988.42475,0.1436152951592,1.53797207117801,0.820897168079937,0.0657070204615593,0.194056674838066,0.0186865516006947,B
1526517988.4257,0.14892879536809,1.53325712700856,0.809827278094625,0.0648353397846222,0.193890824913979,0.0233209989964962,B
1526517988.43916,0.153236967565926,1.52861748144935,0.799933577537247,0.0810577124357224,0.176371961832047,-0.0359644778072834,B
1526517988.45415,0.149595639604445,1.52417514242258,0.798817248604326,0.165295392274857,0.107433937489986,-0.0144783398136497,B
1526517988.45745,0.144763761424585,1.51938544638774,0.798710200171168,0.164828017354012,0.107199259102345,-0.00971141830086708,B
1526517988.47017,0.13665267545311,1.514702176039,0.80155978391616,0.20442907512188,0.105406507849693,-0.0824584141373634,B
1526517988.48598,0.121412534373721,1.51078069317685,0.811702920338154,0.234770506620407,0.0880891308188438,-0.138795658946037,B
1526517988.48675,0.0995629493592523,1.50746408399912,0.829064531622678,0.23574398458004,0.087884709239006,-0.135357260704041,B
1526517988.50243,0.0823407615418311,1.50472112235012,0.843162538354096,0.236604332923889,0.0877073556184769,-0.132530316710472,B
1526517988.51767,0.0790943815420601,1.50221649593119,0.844534938285579,0.251772522926331,0.00758279673755169,-0.12164481729269,B
1526517988.51866,0.0866694796971426,1.49938609365811,0.835730089755819,0.251010805368423,0.00738484412431717,-0.118874914944172,B
1526517988.5335,0.0996261480357049,1.49650846590576,0.821977098737026,0.354709088802338,0.00307078310288489,-0.143418371677399,B
1526517988.55,0.115166253902714,1.49373218870059,0.806494237210461,0.442416608333588,-0.0333634801208973,-0.12284766882658,B
1526517988.55091,0.12870320847038,1.49046187872214,0.794078016677637,0.440963745117188,-0.0336205847561359,-0.119741208851337,B
1526517988.56525,0.137607489066359,1.48663126509828,0.788572104601223,0.49441933631897,-0.0473172552883625,-0.101879090070724,B
1526517988.58186,0.141278209691242,1.48230134277664,0.791704230672765,0.4935063123703,-0.0476905927062035,-0.0976511612534523,B
1526517988.58286,0.139589093886883,1.47696874474302,0.803394565260186,0.492915272712708,-0.0481760464608669,-0.0923714712262154,B
1526517988.59723,0.135419584065086,1.47114010196017,0.819664963447763,0.445903390645981,-0.0761590823531151,-0.0468357726931572,B
1526517988.6128,0.126489932363374,1.46556273158359,0.841797893561925,0.403954774141312,-0.142738983035088,-0.0587940886616707,B
1526517988.61356,0.107567086657506,1.46071894418565,0.873913929799617,0.405411779880524,-0.143259435892105,-0.053774107247591,B
1526517988.62942,0.0812537634179142,1.45721067399583,0.912386730016348,0.189683765172958,-0.217961251735687,-0.0344933122396469,B
1526517988.6447,0.0531004985796847,1.45465611698616,0.951974905834724,-0.0882731601595879,-0.287773072719574,0.104104019701481,B
1526517988.64545,0.0300168488799405,1.4522576901559,0.986577389750141,-0.0856720954179764,-0.288053870201111,0.106596015393734,B
1526517988.66164,0.0177690533428368,1.44891723441513,1.01089908558474,-0.0842830091714859,-0.288454443216324,0.109946444630623,B
1526517988.67653,0.0158307630678433,1.44434696794062,1.02503154831676,-0.242261275649071,-0.290042787790298,0.202695965766907,B
1526517988.67726,0.0191396007015398,1.43883220805318,1.03378968921195,-0.242783159017563,-0.290753364562988,0.208156451582909,B
1526517988.6933,0.0209682901640051,1.43327977596624,1.04358416963648,-0.214361011981964,-0.277842611074448,0.112669855356216,B
1526517988.70875,0.0202348990016201,1.42789308669757,1.05521008914712,-0.254254907369614,-0.243698552250862,0.0592430606484413,B
1526517988.70984,0.0178595064656585,1.4227304156825,1.06692767666428,-0.254007875919342,-0.244446992874146,0.0643568113446236,B
1526517988.72581,0.0104697086070499,1.41854445051361,1.08156442531281,-0.238709434866905,-0.185029864311218,-0.0488444603979588,B
1526517988.7406,-0.0021342683389511,1.41602152712363,1.09968451234893,-0.23679256439209,-0.185415640473366,-0.0463432446122169,B
1526517988.74156,-0.0181346928514685,1.41513352597414,1.1199059738127,-0.23431022465229,-0.185552924871445,-0.045491062104702,B
1526517988.75766,-0.0338890126218103,1.41521654306587,1.1395086393634,-0.274351865053177,-0.147301524877548,-0.0503515191376209,B
1526517988.77218,-0.0454379784608742,1.41538669469644,1.15464875857367,-0.337741643190384,-0.090008944272995,0.0389634296298027,B
1526517988.77368,-0.0508575028758358,1.41548759281847,1.16309768276152,-0.33690881729126,-0.0899933353066444,0.0388235002756119,B
1526517988.78761,-0.0519532308263563,1.41533567968695,1.16707799074071,-0.225724071264267,-0.0491995811462402,0.0592130869626999,B
1526517988.80413,-0.0515916407864737,1.41490090102474,1.16948336778084,-0.0943033695220947,-0.0092584490776062,0.0320875607430935,B
1526517988.80552,-0.0544613276422507,1.41421076105837,1.17449508916872,-0.0938213244080544,-0.00936583895236254,0.0327446646988392,B
1526517988.81955,-0.0627125792608673,1.41349304790525,1.18450702797618,-0.0924923568964005,-0.00947801768779755,0.0333768203854561,B
1526517988.83557,-0.0749771983031965,1.41287859988021,1.19788886311893,-0.0908811017870903,-0.00421862583607435,0.0225582774728537,B
1526517988.83644,-0.0883584844157583,1.41263173587526,1.21155178323722,-0.0887622460722923,-0.00425747828558087,0.0226294454187155,B
1526517988.85121,-0.100341494148246,1.41277060896069,1.22293690599471,-0.129789456725121,0.00160850177053362,0.0378791503608227,B
1526517988.86728,-0.108827297266912,1.41291288601242,1.23013016421377,-0.14527653157711,0.0011426005512476,0.0802636444568634,B
1526517988.8682,-0.11052859041475,1.41266125903299,1.23050016923203,-0.144983246922493,0.00110300630331039,0.0804813355207443,B
1526517988.88375,-0.104708993804895,1.41175699864879,1.22371688286365,-0.0630984306335449,0.00445446511730552,0.0749370381236076,B
1526517988.8997,-0.0963602206573451,1.40995543638868,1.21478046513174,-0.0642428249120712,0.00416755024343729,0.0768400579690933,B
1526517988.9004,-0.0885794021926927,1.40794196606758,1.20648929894039,-0.0653077885508537,0.00384309561923146,0.078934483230114,B
1526517988.91428,-0.08440246889583,1.40628962531025,1.20179108245726,0.0211758203804493,0.016620110720396,-0.0272469446063042,B
1526517988.93012,-0.0838754116019132,1.40495700876971,1.2008707626852,0.0570886060595512,0.0319344438612461,-0.0424550995230675,B
1526517988.93076,-0.0870195099442353,1.40377336203349,1.20385660776881,0.0577071905136108,0.031738355755806,-0.0413365215063095,B
1526517988.94719,-0.0933838414643615,1.40303986665673,1.2109114152957,-0.0164584834128618,0.0229491572827101,-0.174867019057274,B
1526517988.96275,-0.0975534396762079,1.40454928304641,1.21562523679516,-0.0159104224294424,0.0232000630348921,-0.176414713263512,B
1526517988.96333,-0.0962406982737233,1.40887206971621,1.21308439193342,-0.016536446288228,0.0239061918109655,-0.180638685822487,B
0,0,0,0,0,0,0,0,0
1526517989.88288,-0.208538844242508,1.41673457775831,1.33961939974275,-0.0311425104737282,0.00165997142903507,0.00500204367563128,B
1526517989.88342,-0.207933281941243,1.41965155340412,1.3403871773202,-0.0318286046385765,0.00210338551551104,0.00220028148032725,B
1526517989.89972,-0.205843117466329,1.42265317393605,1.33991818666608,-0.032743263989687,0.00255088531412184,-0.000640486076008528,B
1526517989.91556,-0.2066900049102,1.42248980364989,1.34079127254773,0.0796864181756973,-0.0510926246643066,0.282908797264099,B
1526517989.91634,-0.207643282010236,1.41784110752079,1.34026027003497,0.080771766602993,-0.0517902188003063,0.287377148866653,B
1526517989.93123,-0.208276236963748,1.41190703103482,1.34030009589713,0.0148480217903852,-0.0160601157695055,0.101915270090103,B
1526517989.94723,-0.209848997646147,1.40777090988561,1.34288585359842,-0.0502812303602695,0.0105902496725321,-0.117074191570282,B
1526517989.94835,-0.211317668844319,1.40592760423973,1.34591125762375,-0.0496666766703129,0.0102893970906734,-0.115345887839794,B
1526517989.96279,-0.216184366385535,1.40551298202003,1.35148156033794,-0.0027931418735534,-0.0122396741062403,-0.0626713931560516,B
1526517989.97939,-0.223693957775438,1.4060862137632,1.35873128161271,-0.00171277660410851,-0.0121455220505595,-0.0634923130273819,B
1526517989.98081,-0.230444187025327,1.40684903802202,1.36506729032837,-0.00080626888666302,-0.0120207313448191,-0.0644741356372833,B
1526517989.99517,-0.234587289041318,1.4073137534484,1.36919160235587,-0.0352737493813038,-0.00546000432223082,0.0359525419771671,B
1526517990.0108,-0.236268527205432,1.40767559800889,1.37110158279051,-0.062389213591814,-0.0178828667849302,0.0169716589152813,B
1526517990.01159,-0.236313330690804,1.40811077053773,1.37167713065847,-0.0624826736748219,-0.0178122892975807,0.0165524780750275,B
1526517990.0264,-0.234723852313642,1.40849094540033,1.37046914560924,-0.0201872102916241,-0.0152025651186705,0.0186433047056198,B
1526517990.0429,-0.233342961775333,1.40874045368225,1.36932475814441,-0.00576699385419488,-0.0197551734745502,0.0138473361730576,B
1526517990.04368,-0.232691799276541,1.40896932206945,1.36884824463454,-0.00592130376026034,-0.0197182707488537,0.0136518105864525,B
1526517990.05943,-0.233402720923683,1.40931479205554,1.36945886570959,-0.00588871724903584,-0.0196626670658588,0.0132936369627714,B
1526517990.07458,-0.233989199535023,1.40989794537743,1.36988341510767,-0.0210824199020863,-0.0141827231273055,0.00233591557480395,B
1526517990.07536,-0.234451946059611,1.41068098890169,1.37010999231402,-0.0211898814886808,-0.0140575785189867,0.00156687875278294,B
1526517990.09216,-0.235986134688171,1.41142161419606,1.37155690202723,0.0141858654096723,-0.0170830804854631,0.0284478701651096,B
1526517990.10606,-0.237822816391748,1.4117604233798,1.37314502992966,-0.00584275741130114,-0.0198369845747948,0.0461360178887844,B
1526517990.10715,-0.23867950402196,1.41181782295987,1.37362093648408,-0.00572431832551956,-0.0198278967291117,0.046048928052187,B
1526517990.12486,-0.237196589390402,1.41161458383934,1.3718283426537,-0.00590531015768647,-0.019860090687871,0.0462993159890175,B
1526517990.13839,-0.235164803351584,1.41144498842102,1.36950583050988,-0.0203243102878332,-0.0139818368479609,0.0153180323541164,B
1526517990.13925,-0.232804747325001,1.41128553769795,1.36721924914527,-0.0206522736698389,-0.014007150195539,0.0155580407008529,B
1526517990.15357,-0.231975909378895,1.41128603709713,1.36668769021805,0.0172444060444832,-0.00698802806437016,-0.00266163120977581,B
1526517990.17003,-0.232838886603762,1.41152707962052,1.36783399058618,0.0217479262501001,-0.00366913131438196,0.000538978492841125,B
1526517990.17095,-0.235256010846413,1.41198087675356,1.37038969338254,0.0220163818448782,-0.00359726208262146,1.43460674735252e-05,B
1526517990.1855,-0.238371604641634,1.41245818008291,1.3736259196308,0.010375402867794,-0.0122804343700409,0.02983626909554,B
1526517990.2031,-0.240837738947994,1.4127615083093,1.37608348854472,0.010681701824069,-0.0122326519340277,0.0294530913233757,B
1526517990.20392,-0.243482925754688,1.4128877692039,1.37878167442488,0.01105578802526,-0.0122127896174788,0.0292322523891926,B
1526517990.2173,-0.245040293291153,1.41291915137957,1.38048979894519,-0.00227916217409074,-0.015107024461031,0.0474687665700912,B
1526517990.23382,-0.292349997192132,1.41992474145801,1.42738108659876,-0.0297116450965405,-0.0264810062944889,0.0438553988933563,B
1526517990.23474,-0.288525358981506,1.41973872075863,1.42370146671951,-0.0302100833505392,-0.0265089813619852,0.0441963188350201,B
1526517990.24899,-0.284302566522317,1.41945154808457,1.41937488344329,-0.00510526262223721,-0.0390491858124733,0.0299846492707729,B
1526517990.26492,-0.281207889628659,1.41908595122451,1.41616308270454,0.0084324823692441,-0.0651053488254547,-0.00150512484833598,B
1526517990.26561,-0.279951487342753,1.41890306172802,1.41476260795169,0.00829998124390841,-0.0651330053806305,-0.00127879693172872,B
1526517990.28098,-0.278626827162379,1.4189450351247,1.41325266910318,0.00809590239077806,-0.0651266574859619,-0.00126343290321529,B
1526517990.29671,-0.277017917784775,1.41888385464129,1.41130133576538,0.0101977335289121,-0.120021775364876,0.0173398796468973,B
1526517990.29751,-0.276191880094336,1.4189805234968,1.41028850921668,0.0100514236837626,-0.120007149875164,0.0172820836305618,B
1526517990.31254,-0.277579429257115,1.41934179831626,1.41131742599999,0.0318228900432587,-0.189319029450417,-0.00731917889788747,B
1526517990.32883,-0.282182683259132,1.42038159866768,1.41511987195847,-0.0198283270001411,-0.278106182813644,-0.0342857092618942,B
1526517990.32944,-0.28909047266958,1.42230212717748,1.42081753783105,-0.0193765517324209,-0.277820199728012,-0.0363976843655109,B
1526517990.34461,-0.296783777911871,1.42523707078271,1.42698945097103,-0.0913557261228561,-0.380738019943237,-0.0465522743761539,B
1526517990.36082,-0.301424641181697,1.42952395839532,1.42996342952711,-0.0919721052050591,-0.380125313997269,-0.0508022047579288,B
1526517990.36198,-0.303033420773229,1.43470035692105,1.43011449539595,-0.0932857394218445,-0.379409730434418,-0.0557627268135548,B
1526517990.37615,-0.304025463900979,1.4403713680312,1.42958848051054,-0.0728367641568184,-0.44072899222374,-0.0042964038439095,B
1526517990.39236,-0.305760176749486,1.44687916582331,1.42862765685804,-0.0053203166462481,-0.487282156944275,-0.0231694951653481,B
1526517990.39291,-0.314635061192569,1.45431083515117,1.43347207890854,-0.00655901012942195,-0.48639103770256,-0.0305201690644026,B
1526517990.40802,-0.337471888487614,1.46306649605605,1.4514832441804,0.0792408138513565,-0.457304805517197,-0.0698078572750092,B
1526517990.4261,-0.372519783904979,1.47294789726364,1.48159121888026,-0.0217555519193411,-0.40157288312912,-0.0584221035242081,B
1526517990.42664,-0.41328778759187,1.48406184457634,1.51811019734422,-0.0225211549550295,-0.4005486369133,-0.0700817182660103,B
1526517990.43975,-0.454091723987772,1.49679436750259,1.55590859282052,-0.0248809475451708,-0.399526447057724,-0.0829721540212631,B
1526517990.45787,-0.497429558449703,1.51128627990216,1.5975004773747,-0.058214083313942,-0.286880671977997,-0.0359742976725101,B
1526517990.45873,-0.554070746663724,1.52594492248674,1.65296122177514,-0.0630028247833252,-0.286116123199463,-0.0501131899654865,B
1526517990.47185,-0.653204267874106,1.53996423337732,1.75088665238296,0.0547149740159512,-0.21386943757534,0.0644286423921585,B
1526517990.48732,-0.900695347571053,1.55218664381525,1.99695174100582,0.147793889045715,-0.130803644657135,0.0946717858314514,B
1526517990.48823,-1.59311365189715,1.55918740466887,2.68800006311352,0.144814997911453,-0.130697876214981,0.0828555747866631,B
1526517990.50299,-2.41216314342624,1.55642002438541,-2.77664912562382,0.0983257964253426,-0.0551417879760265,0.0957578793168068,B
1526517990.51909,-2.7530483788165,1.54977857093416,-2.43472786817643,0.096706934273243,-0.0552593171596527,0.0870261341333389,B
1526517990.51988,-2.92530937561076,1.54315998904313,-2.25978443422565,0.0946751460433006,-0.0554203130304813,0.0794868022203445,B
1526517990.53514,-3.05157257498574,1.53570316307043,-2.12967840037781,-0.0129591040313244,0.0361732393503189,-0.0739453583955765,B
1526517990.55124,3.13165578337705,1.5261205273339,-2.02589248677861,-0.0466168783605099,0.142083868384361,-0.22143180668354,B
1526517990.55209,3.06040345532877,1.5146204568028,-1.95149466713095,-0.0507265664637089,0.141504213213921,-0.232734456658363,B
1526517990.56727,3.01764871605042,1.50301146796327,-1.90621519286262,0.0433384254574776,0.175743043422699,-0.0710585787892342,B
1526517990.5833,2.9962808212055,1.49227809232609,-1.88216753570976,0.0837196782231331,0.225633010268211,-0.0158128160983324,B
1526517990.58406,2.98991836917394,1.48286520886537,-1.87254855170924,0.0818088129162788,0.224850535392761,-0.0250115599483252,B
1526517990.59882,2.99493469512547,1.47466366361012,-1.87352230687527,0.0810510069131851,0.224096804857254,-0.0331561714410782,B
1526517990.61441,3.00361273894462,1.46771405762747,-1.8772691701166,0.0179208759218454,0.268968462944031,-0.023552693426609,B
1526517990.61522,3.00953887480547,1.46164802303536,-1.87756799594412,0.0177309010177851,0.268325954675674,-0.0296141654253006,B
1526517990.63014,3.01390751374428,1.45566211974957,-1.87632430955895,-0.0216171704232693,0.316514760255814,-0.0888593569397926,B
1526517990.64618,3.01847782157451,1.44935838517363,-1.87619905946041,-0.0678397044539452,0.331105917692184,-0.0820300206542015,B
1526517990.64708,3.01952216185862,1.44287446359616,-1.87388450695508,-0.0684975385665894,0.330299615859985,-0.0884311944246292,B
1526517990.66245,3.01537493254502,1.43675955449977,-1.86805865679663,-0.0697857141494751,0.32950097322464,-0.0943799763917923,B
1526517990.67845,3.01086726004534,1.43129303930905,-1.86242606972603,-0.0313704274594784,0.336552888154984,-0.0383317209780216,B
1526517990.67934,3.00772483788648,1.42675904815238,-1.8574965828924,-0.0324026420712471,0.335912257432938,-0.0427224226295948,B
1526517990.69404,3.00871853929864,1.42359331901115,-1.85545737358794,-0.00481369066983461,0.321994632482529,0.0141515545547009,B
1526517990.70995,3.01423612959746,1.42196503320435,-1.85731605371174,0.00373402121476829,0.272880584001541,0.0115946223959327,B
1526517990.71072,3.02275419501734,1.4213677464099,-1.86257066397274,0.00491751171648502,0.272791862487793,0.0108530418947339,B
1526517990.72572,3.03301416279346,1.42093202428931,-1.87016198956315,-0.0713246241211891,0.2408207654953,-0.0636163800954819,B
1526517990.74199,3.0429986158319,1.42040557421882,-1.87823815637251,-0.0698931440711021,0.240742027759552,-0.0642885193228722,B
1526517990.74288,3.04964785349451,1.41923272960096,-1.88398551730407,-0.0690079033374786,0.240565627813339,-0.0655378922820091,B
1526517990.75849,3.05130447308753,1.41738826389847,-1.88566801847044,-0.188292697072029,0.201604425907135,-0.10706439614296,B
1526517990.7738,3.04825158443879,1.4154067406724,-1.88349465372851,-0.230077430605888,0.162115126848221,-0.0441822372376919,B
1526517990.7746,3.04332921046559,1.41338933000577,-1.88014494927591,-0.231031253933907,0.161800891160965,-0.0460925363004208,B
1526517990.79153,3.03840891161098,1.4113419889961,-1.87714580326306,-0.236492961645126,0.125985950231552,0.0100337630137801,B
1526517990.8054,3.03317884096628,1.40958966162878,-1.87451511595156,-0.331515312194824,0.108479022979736,0.0980624035000801,B
1526517990.80618,3.02509998039433,1.40824646458759,-1.8698460189599,-0.332957923412323,0.108262538909912,0.0968912690877914,B
1526517990.82193,3.01017411118935,1.40788735121206,-1.8590008905729,-0.335401326417923,0.108204357326031,0.0968386009335518,B
1526517990.837,2.98676069244414,1.40834211613336,-1.84028576075743,-0.409876137971878,0.0805375352501869,0.160537257790565,B
1526517990.83781,2.95541412598422,1.40917051411386,-1.81388030899152,-0.414721101522446,0.0806711837649345,0.162200927734375,B
1526517990.85254,2.91677653182809,1.41012187743642,-1.78069891114471,-0.378178805112839,0.0747355744242668,0.153505474328995,B
1526517990.8686,2.87282592184052,1.41131451373719,-1.74298782772775,-0.272348761558533,0.0935261398553848,0.164262235164642,B
1526517990.8694,2.82571490223869,1.41266828680866,-1.70327527599902,-0.279096990823746,0.0937402248382568,0.167688637971878,B
1526517990.88428,2.7756534091442,1.41414996463512,-1.66169843881834,-0.212988793849945,0.1136105209589,0.157332003116608,B
1526517990.90094,2.72162714385797,1.41568207697831,-1.61717948443161,-0.220156788825989,0.113848380744457,0.161941036581993,B
1526517990.90271,2.66319663708524,1.41764621807978,-1.56885964581716,-0.227393791079521,0.114149920642376,0.167583256959915,B
1526517990.91633,2.59687784298325,1.41999015824764,-1.51251787483298,-0.16343455016613,0.168642953038216,0.181642457842827,B
1526517990.93322,2.52020121032407,1.42256818309944,-1.44523596157213,-0.0959876552224159,0.238576546311378,0.162849575281143,B
1526517990.93403,2.4341558463582,1.42528353524526,-1.36799922153162,-0.104243382811546,0.238973915576935,0.172724232077599,B
1526517990.94791,2.33983003831438,1.42800862634039,-1.28280218313779,0.0660021528601646,0.273590832948685,0.0841268450021744,B
1526517990.96353,2.24316918576285,1.43074499591548,-1.19487019375844,0.170055598020554,0.274800509214401,-0.0281073786318302,B
1526517990.96423,2.14583999852329,1.43316135930947,-1.10588999320306,0.164131730794907,0.275134921073914,-0.0157817248255014,B
1526517990.97973,2.05148139925892,1.43483628874525,-1.01973376727771,0.159084603190422,0.275363326072693,-0.00383472326211631,B
1526517990.99562,1.95998045728124,1.43543551722285,-0.936797085096837,0.178030669689178,0.237022742629051,-0.0716963037848473,B
1526517990.99611,1.87159878766014,1.43516273796613,-0.857511187090259,0.173740282654762,0.23698590695858,-0.060555886477232,B
1526517991.01145,1.78903422352751,1.43439246554408,-0.784394366328133,0.264048963785172,0.225284770131111,-0.0905984863638878,B
1526517991.02772,1.71344135304189,1.43368760849917,-0.717832447930581,0.346016645431519,0.189376294612885,-0.111288517713547,B
1526517991.02898,1.64387788190096,1.43296792746149,-0.656197565404572,0.344282299280167,0.189277678728104,-0.101889826357365,B
1526517991.04355,1.57658606734898,1.43200486461787,-0.595670602566406,0.395942509174347,0.151928722858429,-0.0876540094614029,B
1526517991.05929,1.50996241163117,1.43102527583326,-0.534023429456745,0.395227819681168,0.151792719960213,-0.0783830881118774,B
1526517991.06018,1.44160528482157,1.43014076344536,-0.468441617772715,0.395262569189072,0.151669099926949,-0.0687917843461037,B
1526517991.07518,1.37114702876764,1.42936935873729,-0.398837964401993,0.484722971916199,0.105830073356628,-0.103361956775188,B
1526517991.09165,1.30029083164374,1.4292724173204,-0.327516844360758,0.570238769054413,0.0818295851349831,-0.229901686310768,B
1526517991.0938,1.23288931646918,1.43036930723005,-0.259110640282146,0.574110567569733,0.081983707845211,-0.221192821860313,B
1526517991.10711,1.17130414908643,1.43334725925697,-0.196058581229567,0.577049791812897,0.012480360455811,-0.337317019701004,B
1526517991.12519,1.1141438255767,1.43791393720716,-0.136462401323655,0.470165073871613,-0.0212365351617336,-0.293735921382904,B
1526517991.12574,1.05824524901459,1.44331209405125,-0.0762594373549142,0.4782794713974,-0.0205357689410448,-0.28980827331543,B
1526517991.13891,1.00168863521141,1.44921460382902,-0.0135220062484083,0.486914664506912,-0.0198026113212109,-0.286800861358643,B
1526517991.15523,0.94572545178624,1.45518122823156,0.0498312815216015,0.363698810338974,-0.0622637532651424,-0.262774378061295,B
1526517991.15822,0.888055723507821,1.46114149942108,0.115912831179001,0.372339934110641,-0.0615938380360603,-0.261231452226639,B
1526517991.17042,0.825478003240423,1.46769920762475,0.18762038130628,0.305596530437469,-0.155975088477135,-0.262584954500198,B
1526517991.18666,0.761199106439069,1.47517081874385,0.261330019774856,0.136562049388885,-0.237326204776764,-0.227197378873825,B
1526517991.18742,0.690454548618966,1.48345177238615,0.341469459795955,0.146865129470825,-0.236569672822952,-0.229072406888008,B
1526517991.20245,0.611769737588211,1.49174034573864,0.429203771629875,-0.0974646881222725,-0.293757438659668,-0.117295362055302,B
1526517991.21796,0.527253674304991,1.49950259150322,0.523136916843228,-0.0879506766796112,-0.293174475431442,-0.120386496186256,B
1526517991.21872,0.440496876569017,1.50653559117277,0.619649907800649,-0.0794899761676788,-0.292698174715042,-0.123859398066998,B
1526517991.23419,0.353349758561455,1.51258793305803,0.716452590878977,-0.266484349966049,-0.33018484711647,-0.00233390717767179,B
1526517991.24978,0.268285936138676,1.51780343978688,0.810449815612127,-0.379061490297318,-0.334808349609375,0.079332523047924,B
1526517991.25053,0.189855386330619,1.52238772101053,0.896294860662754,-0.374152719974518,-0.334576010704041,0.075779490172863,B
1526517991.266,0.127093889999419,1.52667364852069,0.965313418213278,-0.441122442483902,-0.29818394780159,0.131017625331879,B
1526517991.28176,0.0820320950220213,1.53079073896128,1.01572501708976,-0.438808798789978,-0.298010796308517,0.127125442028046,B
1526517991.28254,0.0540761344775937,1.53483133454612,1.04820146962557,-0.437475085258484,-0.297857373952866,0.12316969037056,B
1526517991.29825,0.0330805330610303,1.53834175817204,1.07319745277067,-0.405934691429138,-0.243416011333466,0.179678440093994,B
1526517991.31333,0.0259446559059981,1.54118432904343,1.08427468449699,-0.372838377952576,-0.176173880696297,0.194392621517181,B
1526517991.31409,0.0366044810701276,1.54379367273757,1.0774943882145,-0.373058378696442,-0.17610003054142,0.19177620112896,B
1526517991.32881,0.0684851285430437,1.54593838106819,1.04873223502656,-0.383201152086258,-0.12498851120472,0.19661109149456,B
1526517991.345,0.128481593184863,1.54739586765058,0.989932474911899,-0.408057808876038,-0.0753927975893021,0.132946670055389,B
1526517991.34576,0.233683238220971,1.54850714874951,0.883641304483799,-0.410220712423325,-0.0753674134612083,0.131422773003578,B
1526517991.36178,0.388924405116867,1.54936377422972,0.725736226776418,-0.413186281919479,-0.0753486901521683,0.129571601748466,B
1526517991.37706,0.568505576701009,1.54964851389527,0.542312020024658,-0.352342218160629,0.00386574887670577,0.0966774895787239,B
1526517991.37806,0.738539433229668,1.54949442361775,0.367873762166742,-0.355297178030014,0.003862478537485,0.0946079790592194,B
1526517991.39239,0.891158171659031,1.54896290746916,0.211299741964332,-0.254453212022781,0.0605068989098072,0.0971260070800781,B
1526517991.40899,1.00840689149559,1.54757431208545,0.0906823408140154,-0.208715334534645,0.105122834444046,0.119955539703369,B
1526517991.40979,1.08930970957006,1.54576427283426,0.00669582470624883,-0.211255431175232,0.105079174041748,0.119165532290936,B
1526517991.42528,1.15963976241796,1.54366761859622,-0.0671201605501968,-0.155525743961334,0.12786690890789,0.08827955275774,B
1526517991.44134,1.20952215415914,1.54126661894869,-0.121803860558113,-0.158280476927757,0.127798900008202,0.087874598801136,B
1526517991.44203,1.23607357700975,1.53846313901451,-0.155424828241664,-0.161194428801537,0.127712190151215,0.0880581960082054,B
1526517991.45822,1.24498938026478,1.53533107259547,-0.173232002668627,-0.120186112821102,0.148205399513245,0.103039167821407,B
1526517991.47255,1.24123991438158,1.53184784694271,-0.178975628560233,-0.0743492916226387,0.162159696221352,0.07851941883564,B
1526517991.47347,1.22488295782797,1.52817707607254,-0.172039458199298,-0.077588714659214,0.162010028958321,0.0803639143705368,B
1526517991.48835,1.19155770572383,1.52461079618128,-0.147203822598307,0.024967186152935,0.191957324743271,0.080858901143074,B
1526517991.50381,1.13692940687993,1.52143875751023,-0.0999954020484271,0.0396758802235126,0.219576835632324,0.0338326804339886,B
1526517991.50468,1.07194606068441,1.51872897453915,-0.0421355108306455,0.0387407243251801,0.219439476728439,0.0379906557500362,B
1526517991.5203,1.01144856655732,1.51630455658927,0.0110514389758784,0.038277693092823,0.219310373067856,0.0419928915798664,B
1526517991.53586,0.958162222475633,1.51425186162594,0.0562437273336552,0.0305305421352386,0.235141903162003,-0.0049631972797215,B
1526517991.53667,0.91186899499976,1.51230630616913,0.0934420032229726,0.0305482279509306,0.235030055046082,-0.00166911049745977,B
1526517991.55142,0.864620190714458,1.51028678809525,0.130438470264072,0.0780281722545624,0.219178155064583,0.0569273829460144,B
1526517991.56761,0.812690738106528,1.50800170965488,0.171364790453123,0.105158604681492,0.206876114010811,0.0987336561083794,B
1526517991.56844,0.755076381488594,1.50477543657768,0.218631537477491,0.105512142181396,0.206668451428413,0.103630527853966,B
1526517991.58306,0.688416008167018,1.50048622045978,0.276735764670486,0.184356391429901,0.185044527053833,0.133399829268456,B
1526517991.59949,0.613814596803465,1.49504144308117,0.344754223189324,0.185396328568459,0.184647232294083,0.141014471650124,B
1526517991.60121,0.534988999413181,1.48857738932353,0.417023776645196,0.187118053436279,0.184137180447578,0.149798512458801,B
1526517991.61515,0.461990382568525,1.48191624736921,0.482886574991426,0.22664038836956,0.152516394853592,0.00594096537679434,B
1526517991.63174,0.398290260717384,1.47533933040928,0.539894780091417,0.177999690175056,0.123911187052727,-0.0893334746360779,B
1526517991.63254,0.345613587151127,1.46871148123084,0.586962588900269,0.180442154407501,0.123257607221603,-0.0813034549355507,B
1526517991.64688,0.310784058355353,1.46268840520658,0.619394339286166,0.130914300680161,0.088400311768055,-0.19414646923542,B
1526517991.6625,0.288537463572975,1.45666266868667,0.641999670062771,0.203265681862831,0.0186555646359921,-0.121809452772141,B
1526517991.66298,0.269321870121991,1.44973638074759,0.663345798556575,0.203539252281189,0.0178429335355759,-0.114576458930969,B
1526517991.67869,0.252547237854166,1.44198748971027,0.683364901053518,0.203575313091278,0.0168773494660854,-0.106609255075455,B
1526517991.6947,0.238907326978873,1.43379569470656,0.700149515570093,0.249526426196098,-0.0471964552998543,-0.169278010725975,B
1526517991.69564,0.227551424719452,1.42609456186782,0.714331679300577,0.249315217137337,-0.0482775829732418,-0.161491274833679,B
1526517991.71036,0.216015809530972,1.420061658439,0.72837088805543,0.349649727344513,-0.0717332661151886,-0.314079821109772,B
1526517991.72603,0.201861609208117,1.41580102660051,0.744813655249149,0.367547273635864,-0.107690870761871,-0.302937000989914,B
1526517991.72667,0.187102784005084,1.41271303796824,0.762621954686333,0.369215309619904,-0.108172290027142,-0.299499690532684,B
1526517991.74254,0.174349210664568,1.40970167400396,0.78021710332405,0.325142383575439,-0.129982620477676,-0.187690272927284,B
1526517991.75896,0.165549591060641,1.40616695270102,0.796569224583832,0.325958698987961,-0.130555748939514,-0.184011295437813,B
1526517991.7595,0.160807455270714,1.40245284101313,0.811395472700189,0.326139062643051,-0.131171241402626,-0.180269539356232,B
1526517991.77442,0.153245269341825,1.39836003958978,0.83058509124753,0.362831324338913,-0.145888075232506,-0.143080368638039,B
1526517991.79169,0.138027042786762,1.39394172000732,0.858062229145423,0.361367702484131,-0.180881261825562,-0.119608141481876,B
1526517991.79326,0.115914848092033,1.38986506281894,0.892552323367062,0.364762634038925,-0.181606665253639,-0.115130849182606,B
1526517991.80585,0.0898156182543412,1.38668800583947,0.931087990875637,0.14178267121315,-0.199837744235992,-0.111094422638416,B
1526517991.82486,0.0649114442311011,1.38411214213736,0.96882973630255,-0.108581572771072,-0.207362130284309,0.04222072660923,B
1526517991.8254,0.0456130161484185,1.38132107302981,1.00138062015403,-0.105130299925804,-0.207883983850479,0.0451575592160225,B
1526517991.83749,0.0352847281080552,1.37775761977747,1.02561856472266,-0.10331004858017,-0.208561360836029,0.0487325191497803,B
1526517991.85389,0.0344829173000225,1.37384456883356,1.04110902400734,-0.228670135140419,-0.197570294141769,0.0776294246315956,B
1526517991.85727,0.0368858529194029,1.36992753826626,1.0535073318115,-0.229281648993492,-0.198344305157661,0.0814498290419579,B
1526517991.86935,0.0351238687245924,1.36665796231854,1.06918770293337,-0.168633252382278,-0.190472230315208,0.0635756254196167,B
1526517991.8857,0.0250196596560219,1.36470180610065,1.09135289890043,-0.277534604072571,-0.18769682943821,0.0225982759147882,B
1526517991.88646,0.0078412638959564,1.36439794125391,1.11810301083174,-0.274022102355957,-0.187759056687355,0.0229534469544888,B
1526517991.90149,-0.0105682318737164,1.36540019237731,1.1446220036529,-0.270259767770767,-0.187554150819778,0.0219672750681639,B
1526517991.91659,-0.0266347601635246,1.36670876309503,1.16795776894141,-0.415592461824417,-0.190217792987823,0.119929738342762,B
1526517991.91735,-0.0394722865126033,1.36782811545619,1.18710185584521,-0.413035333156586,-0.189991548657417,0.118748359382153,B
1526517991.9332,-0.0488413741376523,1.36863482436448,1.20124766840628,-0.423409461975098,-0.155954733490944,0.174180656671524,B
1526517991.94871,-0.0537478994133762,1.36924368807406,1.20907715767791,-0.402483880519867,-0.111933127045631,0.123195759952068,B
1526517991.94949,-0.0542880103560307,1.37038410253487,1.21130213382346,-0.402436524629593,-0.111705467104912,0.122074104845524,B
1526517991.9647,-0.0535372034357806,1.37195803606054,1.2113538770602,-0.244938239455223,-0.075794592499733,0.122052311897278,B
1526517991.98105,-0.0525197931724384,1.37350372548523,1.21029479648203,-0.245218485593796,-0.0754904448986053,0.120549589395523,B
1526517991.98187,-0.0513798174617971,1.3748298455297,1.20844955236094,-0.245508417487144,-0.0752313658595085,0.119262337684631,B
1526517991.99616,-0.0499136936056183,1.3762818388908,1.20593329842703,-0.142196387052536,-0.0309891067445278,0.0879927128553391,B
1526517992.01229,-0.047490711801377,1.37761599283493,1.20176172632012,-0.0816759020090103,0.00839143339544535,0.0790021345019341,B
1526517992.01304,-0.0443746042577478,1.37859762274769,1.19617347758131,-0.0823162496089935,0.00857941526919603,0.0780670866370201,B
1526517992.0281,-0.0413519975264429,1.37954171106778,1.19083114804653,0.00193798344116658,0.0323188863694668,0.0459158308804035,B
1526517992.04395,-0.0378612280630853,1.38037464052526,1.18559906780028,-0.00411184970289469,0.0530609823763371,0.0611313506960869,B
1526517992.04471,-0.0328957308156207,1.3805026367433,1.17945116206074,-0.00505522871389985,0.0530852004885674,0.0610389783978462,B
1526517992.05971,-0.0265817902877188,1.38037032892169,1.17232956215365,-0.00624551065266132,0.0530601665377617,0.0612043626606464,B
1526517992.07565,-0.0179312326235033,1.37991054972069,1.16330662275642,-0.019837249070406,0.0598242357373238,0.0120705934241414,B
1526517992.07657,-0.00681449345420371,1.38013000469279,1.15236475894292,-0.0219477098435163,0.0598658472299576,0.0118812201544642,B
1526517992.09359,0.00509702468692784,1.38273950720156,1.14053007389474,-0.0233375299721956,0.064843125641346,-0.186633035540581,B
1526517992.10819,0.0152368488797781,1.38810817807752,1.13029833872368,0.0808196216821671,0.0589356645941734,-0.0488161966204643,B
1526517992.10908,0.0196130536899304,1.39426400286688,1.12572347575767,0.0801434814929962,0.0600353740155697,-0.0548856742680073,B
0,0,0,0,0,0,0,0,0
1526517993.07966,-0.177356259891106,1.42517784530159,1.31303333494032,-0.0165443085134029,0.00255416822619736,-0.0127656497061253,B
1526517993.09272,-0.169353465635424,1.427684777952,1.30711485303977,-0.0190523210912943,0.0103916320949793,0.00049221672816202,B
1526517993.09327,-0.159330715596283,1.42886418478851,1.29934373222325,-0.0206477604806423,0.0105591546744108,-0.000426577957114205,B
1526517993.10827,-0.151502913324256,1.4251751944622,1.29066301814874,0.055240586400032,-0.0172216072678566,0.340466350317001,B
1526517993.125,-0.146433181644281,1.41812412174382,1.28433295364495,0.0176429077982903,0.00213164649903774,-0.0624384172260761,B
1526517993.12554,-0.143291501776593,1.41206746240326,1.28192094674121,0.0180245637893677,0.00119242852088064,-0.0564473830163479,B
1526517993.14141,-0.140854226581595,1.40821904514805,1.28135844756704,0.0181765202432871,0.000576824881136417,-0.0526315979659557,B
1526517993.15784,-0.142195172167426,1.40623339293712,1.28459353359405,0.0195540506392717,0.0298555288463831,-0.137774229049683,B
1526517993.15879,-0.148206852151295,1.40514731093442,1.29154428490053,0.0206867214292288,0.0296770241111517,-0.13685716688633,B
1526517993.17251,-0.156273496293284,1.40428971357358,1.29947640669508,0.0192949660122395,-0.00154690362978727,-0.0219350568950176,B
1526517993.18762,-0.161559574932942,1.40401734294891,1.30459982878945,-0.0603784285485744,-0.00368253653869033,-0.0255927797406912,B
1526517993.1912,-0.161889945192487,1.40405423164841,1.3052297508024,-0.0603301636874676,-0.00367641332559288,-0.02563751116395,B
1526517993.20327,-0.158741358464926,1.40408537118344,1.30254811726496,-0.0281818211078644,-0.013253765180707,-0.00902862939983606,B
1526517993.21966,-0.155354713912278,1.40413992531738,1.29965095037711,-0.0287452079355717,-0.0132447136566043,-0.00899388361722231,B
1526517993.22093,-0.151920518848302,1.40416933684272,1.29669288963175,-0.0293125715106726,-0.0132398353889585,-0.00893537327647209,B
1526517993.23531,-0.148395252058295,1.40413465517686,1.29327433443411,-0.00296912179328501,-0.0229349192231894,0.00822998583316803,B
1526517993.25147,-0.145661807389722,1.404035848927,1.29033514928836,0.00384438363835216,-0.0346853248775005,0.00273181055672467,B
1526517993.25255,-0.144564723791754,1.40386736098256,1.28884111164296,0.00368812982924283,-0.0347133055329323,0.00292255869135261,B
1526517993.26736,-0.144921564867566,1.4036515605925,1.28868486987245,0.0128259938210249,-0.0329486466944218,-0.00494732661172748,B
1526517993.28307,-0.145076708695123,1.40366926875739,1.28869750353919,0.000641978112980723,-0.0327473357319832,0.00948173925280571,B
1526517993.28386,-0.144617925918848,1.40357392917358,1.28799839160044,0.000580007035750896,-0.0327632017433643,0.00958578381687403,B
1526517993.29889,-0.142576419150759,1.4034944821648,1.28571465262688,0.000254838931141421,-0.0327764265239239,0.00971195381134748,B
1526517993.31449,-0.139136090640678,1.40358327874791,1.28219310844823,-0.0249522067606449,-0.0194712392985821,-0.0168903972953558,B
1526517993.31524,-0.13518728032727,1.40375510142918,1.27825916533647,-0.0256260894238949,-0.0194426570087671,-0.0169684179127216,B
1526517993.33083,-0.131767531808724,1.4039561682372,1.27506819683806,-0.00531112682074308,-0.0166779235005379,-0.00862067472189665,B
1526517993.3465,-0.129107954538293,1.40437407243738,1.27269107720011,0.0182304903864861,-0.0136789213865995,-0.0147702535614371,B
1526517993.34723,-0.127851488675668,1.40498251420387,1.27151422960343,0.0179475545883179,-0.013578312471509,-0.0153387533500791,B
1526517993.3624,-0.127137511732467,1.40568566998359,1.27083454477053,0.00120219902601093,-0.00207944051362574,-6.62892052787356e-05,B
1526517993.37838,-0.126063441385136,1.40650045266256,1.26990564318826,0.000926019973121583,-0.00194584915880114,-0.000841377419419587,B
1526517993.3793,-0.124506547882817,1.40761758666405,1.2685822798916,0.000536498031578958,-0.00176374881993979,-0.00190321821719408,B
1526517993.39482,-0.122056530435871,1.40859578269222,1.26641407778644,-0.00931440480053425,-0.00119332026224583,0.00278760376386344,B
1526517993.41049,-0.118469081415724,1.41834048910973,1.26298183284815,0.00616957806050777,-0.00564797129482031,0.0476215407252312,B
1526517993.41126,-0.11539443115775,1.41848072207917,1.25991510571092,0.00568987336009741,-0.00562668452039361,0.0475383289158344,B
1526517993.42621,-0.112002526780326,1.4184298824285,1.25661963510868,0.00378035963512957,0.00429907208308578,0.0302516352385283,B
1526517993.44207,-0.108612421162409,1.41820845057614,1.25334026908291,0.0230070240795612,-0.01105438452214,0.0317770726978779,B
1526517993.44286,-0.106472811254082,1.41765512063046,1.25110204596556,0.0227418076246977,-0.0111386403441429,0.032355759292841,B
1526517993.45863,-0.105916856399229,1.41693777463742,1.25034378522947,0.0227324236184359,-0.0112483212724328,0.0330696888267994,B
1526517993.47445,-0.106115231761161,1.4164359551863,1.25043685573358,0.00412315921857953,-0.0128054525703192,-0.0168707445263863,B
1526517993.47539,-0.105678602186738,1.41622685758166,1.24987872227811,0.00407819775864482,-0.0128376223146915,-0.0166581943631172,B
1526517993.49105,-0.104793843183119,1.41616632497335,1.24902749342831,-0.00360410567373037,-0.0148611040785909,-0.0225200727581978,B
1526517993.50606,-0.0955352081211593,1.41499778823813,1.23986205827974,0.0063329366967082,-0.0449337176978588,-0.0168489832431078,B
1526517993.50716,-0.0943436841014553,1.41532087435382,1.23873580239899,0.00611881352961063,-0.0448836348950863,-0.0171492174267769,B
1526517993.52125,-0.0925302489088449,1.41563336853056,1.23712902481472,0.0149659756571054,-0.0867969617247581,0.00161253905389458,B
1526517993.5372,-0.0913932204158718,1.41584640800109,1.23625254361953,0.0147717902436852,-0.0867640674114227,0.00141907052602619,B
1526517993.53833,-0.0920784733346987,1.4162548372117,1.23719816726586,0.0148399956524372,-0.0867011100053787,0.00100754329469055,B
1526517993.55302,-0.0945316228560192,1.41713663967151,1.23973385764144,0.016873212531209,-0.150973111391068,-0.0310535486787558,B
1526517993.56902,-0.0981860853817233,1.41887661357404,1.2431729148354,-0.0268823020160198,-0.213055714964867,-0.0454683192074299,B
1526517993.56983,-0.102409525933417,1.42141103470131,1.24719854897389,-0.0265025161206722,-0.212675333023071,-0.0480249039828777,B
1526517993.58491,-0.105958733901692,1.42454866600324,1.25061997370688,-0.0437461659312248,-0.287210166454315,-0.0284149907529354,B
1526517993.60099,-0.107782859609295,1.42819714296472,1.25233196311601,-0.0438702553510666,-0.286685079336166,-0.032032884657383,B
1526517993.6018,-0.108331182810837,1.43257233351072,1.25249772739508,-0.044261172413826,-0.286072760820389,-0.0363480225205421,B
1526517993.61695,-0.110134706697833,1.4377410959854,1.25348458557235,-0.0434478968381882,-0.33479705452919,-0.0784679278731346,B
1526517993.63259,-0.114279165688479,1.44389334540084,1.25572173012678,0.00751978065818548,-0.392410278320312,-0.0759688317775726,B
1526517993.63339,-0.122307371378973,1.45095367620981,1.26063239925266,0.00767391780391335,-0.391541421413422,-0.0830430537462234,B
1526517993.64884,-0.138551398039692,1.45919779672695,1.27305701204905,0.0493010245263577,-0.389857143163681,-0.116293206810951,B
1526517993.66428,-0.161888296042287,1.46843682658017,1.29168108085754,-0.0153295928612351,-0.342361837625504,-0.078461229801178,B
1526517993.66514,-0.189621723014277,1.47839928838093,1.31453137346249,-0.0144084077328444,-0.341393262147903,-0.0886942073702812,B
1526517993.6804,-0.215540190316401,1.48928821307125,1.33641719525285,-0.0143860522657633,-0.340447634458542,-0.0997720658779144,B
1526517993.6961,-0.240628664207806,1.50152276193579,1.35894578586936,-0.0705557838082314,-0.269442528486252,-0.1248384937644,B
1526517993.69714,-0.270255533458392,1.51497376311321,1.38748330703964,-0.0721557512879372,-0.26860174536705,-0.138293951749802,B
1526517993.71185,-0.316337093550684,1.52900391601029,1.4332478824991,0.00449816649779677,-0.205920785665512,-0.0523796267807484,B
1526517993.72837,-0.408680881996955,1.54300376253833,1.52564411481487,0.0386769883334637,-0.143467858433723,0.102954059839249,B
1526517993.72933,-0.661163028276708,1.55581854457217,1.77857725385855,0.0368302091956139,-0.143193826079369,0.0892748162150383,B
1526517993.74358,-1.69633153368198,1.56353361259284,2.81468587336219,0.0330386273562908,-0.118388801813126,0.155203342437744,B
1526517993.76042,-2.76603701309625,1.55740143936418,-2.39783969562589,0.0307460874319077,-0.11845213919878,0.143651723861694,B
1526517993.76161,-3.0541413389108,1.54753734006107,-2.10817622056648,0.027864383533597,-0.118632905185223,0.132944658398628,B
1526517993.77627,3.10578260202425,1.53778187556607,-1.98264057822895,0.00185471714939922,-0.0745195373892784,0.0976279452443123,B
1526517993.79229,3.03506003400399,1.52872534840016,-1.90976649144066,0.0652452707290649,-0.04902633279562,0.0599407367408276,B
1526517993.79283,2.99168450481576,1.5199178302063,-1.86486513690122,0.0621221177279949,-0.0494355112314224,0.0514746829867363,B
1526517993.80743,2.96926423941227,1.51061107228385,-1.84146773778953,0.0816048011183739,0.05733248218894,-0.120079547166824,B
1526517993.82497,2.96682887844335,1.50049135505705,-1.83806948230817,0.0925983786582947,0.121324181556702,-0.12801493704319,B
1526517993.82563,2.97543138476138,1.4898425443842,-1.84559888147092,0.0914376676082611,0.120519585907459,-0.138589516282082,B
1526517993.84047,2.98646858711484,1.47921435313744,-1.85519533851235,0.0906827300786972,0.119603857398033,-0.149193748831749,B
1526517993.85498,2.99581000657259,1.46923723542909,-1.86254628735346,0.0457275025546551,0.183003440499306,-0.0724466145038605,B
1526517993.85803,3.00296131653455,1.46017341727626,-1.86703208313681,0.0451997555792332,0.18204365670681,-0.0814757272601128,B
1526517993.87115,3.00782955952328,1.45208525195897,-1.86926001377271,0.00845152419060469,0.275829553604126,-0.0468636378645897,B
1526517993.88648,3.01115567820458,1.44493398737426,-1.8714726940783,0.0210261140018702,0.356652766466141,-0.132429018616676,B
1526517993.88723,3.01640980812716,1.43776043017492,-1.87752081664687,0.020792119204998,0.35572674870491,-0.139570951461792,B
1526517993.90223,3.02811159167034,1.42967507981205,-1.8913535522659,0.0631743147969246,0.347633361816406,-0.172112509608269,B
1526517993.9186,3.04440181243823,1.4215127378062,-1.90983065240803,0.0646691396832466,0.346452355384827,-0.18039171397686,B
1526517993.91953,3.06093994416697,1.4143914106032,-1.92759547303337,0.0665520653128624,0.34536811709404,-0.187625557184219,B
1526517993.9342,3.07531688249173,1.4090851490091,-1.94158696574822,-0.0458498410880566,0.338637799024582,-0.0280396770685911,B
1526517993.95035,3.08656518232681,1.40526163049038,-1.95085535548547,-0.13024814426899,0.308092474937439,-0.0564370639622211,B
1526517993.95145,3.09484370682298,1.40207781889335,-1.95614464181385,-0.129032492637634,0.307562857866287,-0.0596424713730812,B
1526517993.96626,3.10230818567867,1.39932499181155,-1.96012035492477,-0.114779479801655,0.271376043558121,-0.0683735683560371,B
1526517993.98214,3.1122371496613,1.39673012012959,-1.96671679053427,-0.158251032233238,0.210642471909523,-0.021288963034749,B
1526517993.98302,3.12301334672441,1.39423279921473,-1.9750197636035,-0.156430944800377,0.210206896066666,-0.0237923040986061,B
1526517993.99761,3.13183639108076,1.39171805550178,-1.98283384268634,-0.154905512928963,0.209762081503868,-0.0262892320752144,B
1526517994.0137,3.13769048774376,1.38946497130096,-1.98860318917634,-0.240709200501442,0.165733382105827,0.0434169955551624,B
1526517994.01446,3.13808273817396,1.38741806896474,-1.9894912247739,-0.240645527839661,0.165362179279327,0.0414037816226482,B
1526517994.02931,3.13274056878888,1.38590646093961,-1.98547374093702,-0.282556891441345,0.128098100423813,0.0938941463828087,B
1526517994.04542,3.12301413899481,1.38500362689432,-1.97780519180789,-0.285902440547943,0.108080044388771,0.142088457942009,B
1526517994.04618,3.10809659628656,1.38488257010568,-1.96570110375477,-0.288661122322083,0.108057677745819,0.14204129576683,B
1526517994.06127,3.08918966589522,1.38573478679813,-1.95052153295764,-0.258402138948441,0.123229496181011,0.158454433083534,B
1526517994.07714,3.06696204725258,1.38740267732355,-1.93271161468779,-0.262361586093903,0.12353502959013,0.160349145531654,B
1526517994.07789,3.04212684083654,1.38971285133578,-1.91335974042448,-0.266647845506668,0.123953707516193,0.163003578782082,B
1526517994.09342,3.01644954472468,1.39272137341276,-1.89404399790226,-0.20149177312851,0.156046256422997,0.140076354146004,B
1526517994.10898,2.98936004479641,1.39671830781786,-1.87378326038113,-0.192829936742783,0.169060230255127,0.138830974698067,B
1526517994.10974,2.95770618357845,1.40149384467504,-1.84874009095669,-0.197374537587166,0.169876113533974,0.144373968243599,B
1526517994.12576,2.91953368036895,1.40665450703991,-1.81642550181675,-0.189247518777847,0.205080062150955,0.102172672748566,B
1526517994.14109,2.87433281000095,1.41244622408542,-1.77633516309514,-0.106890641152859,0.21441750228405,0.132485508918762,B
1526517994.14186,2.81802769340858,1.41903408036745,-1.72462229094477,-0.113314159214497,0.215434908866882,0.141241118311882,B
1526517994.15738,2.74906814749679,1.42661942698306,-1.66016615329232,-0.120206564664841,0.216553211212158,0.151825726032257,B
1526517994.17262,2.666201348241,1.43452451697169,-1.58200231439314,-0.0110752135515213,0.25691893696785,0.0715658068656921,B
1526517994.17422,2.57112232205581,1.44201392114698,-1.49241948146812,-0.0182523392140865,0.257908582687378,0.0842623189091682,B
1526517994.19077,2.46790346037187,1.44853777605255,-1.39616416011778,0.124813228845596,0.275525242090225,-0.0768624320626259,B
1526517994.20556,2.36936213264262,1.45437610483977,-1.30554737760857,0.278709411621094,0.268331527709961,-0.152011960744858,B
1526517994.20647,2.28263464862695,1.46015510366277,-1.22637839654111,0.276153922080994,0.268986195325851,-0.140928328037262,B
1526517994.22044,2.20076806880767,1.46563348649068,-1.15133800529767,0.27493679523468,0.269576191902161,-0.130641490221024,B
1526517994.23641,2.11663987013738,1.47019198729788,-1.07292622221432,0.18442314863205,0.195215255022049,-0.101410232484341,B
1526517994.23722,2.02554160500906,1.474138539532,-0.986336925398315,0.183564081788063,0.195603877305984,-0.091659888625145,B
1526517994.25185,1.91688000142267,1.47724835756141,-0.882176184419811,0.180162832140923,0.126258075237274,0.0133114363998175,B
1526517994.26781,1.79370504297968,1.4797221739487,-0.763999203978505,0.26295593380928,0.101400658488274,-0.0462897792458534,B
1526517994.26864,1.66770500352068,1.48152629191188,-0.643615162749261,0.262920826673508,0.10156311839819,-0.034810122102499,B
1526517994.28368,1.54727774447484,1.48287914283971,-0.529475000833343,0.293384850025177,0.0474225617945194,-0.201456889510155,B
1526517994.30005,1.4401632222392,1.48389804923836,-0.428943726079229,0.295115083456039,0.0475115105509758,-0.192216441035271,B
1526517994.30085,1.34482547737787,1.48469262660084,-0.339157640908901,0.297353506088257,0.0475801564753056,-0.184253796935081,B
1526517994.31551,1.25589611389309,1.4851564204604,-0.253295723793163,0.330566495656967,-0.036776427179575,-0.239087104797363,B
1526517994.33149,1.16771026288737,1.48481051876398,-0.164685931580905,0.385633081197739,-0.0665759742259979,-0.215534642338753,B
1526517994.33229,1.08257826815671,1.4832067425111,-0.0758221299875608,0.387372493743896,-0.0667149871587753,-0.20819017291069,B
1526517994.34771,1.004932367366,1.48132759879605,0.00806922147512354,0.503023326396942,-0.0924548581242561,-0.318566054105759,B
1526517994.363,0.934125904118278,1.48123556468668,0.086126931965024,0.583264112472534,-0.197886064648628,-0.431932777166367,B
1526517994.36366,0.866677173234839,1.48429661721886,0.160970999250461,0.589335560798645,-0.197616934776306,-0.429180532693863,B
1526517994.37905,0.799497077867651,1.49048580950861,0.235290257159719,0.597660660743713,-0.197101324796677,-0.429185748100281,B
1526517994.39523,0.733083544511837,1.49902905761036,0.308768490355745,0.311544716358185,-0.254939287900925,-0.373350203037262,B
1526517994.39586,0.666699877162185,1.50849528405996,0.3819226040903,0.321025788784027,-0.254305183887482,-0.377707093954086,B
1526517994.41078,0.595166085883939,1.51752900796031,0.459998962932047,0.0183677691966295,-0.30874565243721,-0.115382172167301,B
1526517994.42673,0.518614717531411,1.52543934695522,0.543113473161732,-0.195860341191292,-0.323278814554214,0.028484558686614,B
1526517994.42843,0.446295927973065,1.53216912120228,0.622437096996323,-0.190054029226303,-0.322996318340302,0.0239403117448092,B
1526517994.44233,0.389198801242601,1.53758052831037,0.686973757171002,-0.331464231014252,-0.298784613609314,0.129267305135727,B
1526517994.45978,0.36125708207132,1.54160157204465,0.722464078302161,-0.329180359840393,-0.298659175634384,0.125847712159157,B
1526517994.46041,0.363552709188387,1.54455165115228,0.727954440376574,-0.328194379806519,-0.298577398061752,0.123067751526833,B
1526517994.47456,0.377032909527837,1.54633293561856,0.722944278820229,-0.289126485586166,-0.236215353012085,0.20075187087059,B
1526517994.49199,0.397083841669112,1.54738830229751,0.711847491163523,-0.235431164503098,-0.161132112145424,0.159798845648766,B
1526517994.49252,0.42523432171337,1.5482817643627,0.692063112966362,-0.235666632652283,-0.16111159324646,0.158721834421158,B
1526517994.50603,0.430591708412774,1.54976787323127,0.693852629126612,-0.139193683862686,-0.0935285836458206,0.108325682580471,B
1526517994.52283,0.397410829016436,1.55207745696837,0.732481856883223,-0.156231194734573,-0.0484692603349686,0.0977338850498199,B
1526517994.52436,0.320612511944485,1.55493516503557,0.8129077055637,-0.153985217213631,-0.0484198518097401,0.0955271422863007,B
1526517994.53837,0.188451141081496,1.55789929884713,0.947348515428981,-0.151402845978737,-0.0483772344887257,0.0931431949138641,B
1526517994.55372,-0.0444300145449425,1.56053655889208,1.18131562879398,-0.24940699338913,-0.0141364932060242,0.103663772344589,B
1526517994.55447,-0.358619656629037,1.56255082033736,1.4958681546861,-0.246968671679497,-0.0141178565099835,0.101135164499283,B
1526517994.56981,-0.684381989596878,1.56384522014982,1.82173258222941,-0.362808346748352,0.0100161246955395,0.128569945693016,B
1526517994.58554,-0.898331392259195,1.5650121324538,2.0353034581383,-0.412101089954376,0.0241531934589148,0.170839369297028,B
1526517994.58632,-0.859629006070219,1.56631263390783,1.99579764579572,-0.413229137659073,0.0241598710417747,0.17016290128231,B
1526517994.60125,-0.445778722759481,1.5677805310525,1.58031272545994,-0.328732043504715,0.0412399582564831,0.0964710712432861,B
1526517994.61723,0.496605430327301,1.56793287015271,0.635043666469437,-0.331396609544754,0.0412404052913189,0.0962675586342812,B
1526517994.61809,1.0499651817018,1.56620145578693,0.0774386497828738,-0.334017962217331,0.0412339493632317,0.0960364043712616,B
1526517994.63304,1.25033657276464,1.56398455203975,-0.12820537697798,-0.215571388602257,0.0811993330717087,0.0786075070500374,B
1526517994.64898,1.28904185310934,1.56166653994016,-0.172886059577426,-0.150005027651787,0.0914042443037033,0.114202238619328,B
1526517994.65002,1.24108961579834,1.55911188461266,-0.13103227515917,-0.152290180325508,0.0913776606321335,0.115446753799915,B
1526517994.66497,1.17165785474232,1.55613344759946,-0.067804329881413,-0.129491895437241,0.104659348726273,0.0934514477849007,B
1526517994.68095,1.10484309663253,1.55251030818601,-0.0077014534396496,-0.0773556008934975,0.112778373062611,0.0704403296113014,B
1526517994.6818,1.04319931170978,1.54818270285348,0.0469725043472769,-0.0805568397045135,0.112689882516861,0.0736093968153,B
1526517994.69665,0.991435116577433,1.54358295517671,0.0917723922847151,-0.0837895795702934,0.11257529258728,0.0771225392818451,B
1526517994.71264,0.949638684413175,1.53909333545234,0.126560456246913,-0.0350998416543007,0.131150335073471,0.0149072809144855,B
1526517994.7134,0.914880304476727,1.53465504070195,0.15408117491824,-0.0379584766924381,0.130999803543091,0.0184972062706947,B
1526517994.72865,0.87792948070336,1.53030431602954,0.183692511133558,0.00132393441163003,0.148182392120361,0.00634103547781706,B
1526517994.74491,0.83448908213538,1.52582102330817,0.21957805656695,0.050548929721117,0.153255134820938,0.0145987858995795,B
1526517994.74568,0.781778065984332,1.52142472944525,0.264683404525963,0.0490920543670654,0.153047829866409,0.0194284282624722,B
1526517994.76009,0.724163969287716,1.51719833361714,0.314682400363718,0.0598905123770237,0.153669565916061,-0.0129872970283031,B
1526517994.77588,0.670569679102619,1.51308698348426,0.360568963507959,0.0595401376485825,0.153440862894058,-0.00792752578854561,B
1526517994.77666,0.62018600214531,1.50878585899142,0.403244972984772,0.0593661330640316,0.153183564543724,-0.00268589775077999,B
1526517994.79277,0.569249674276204,1.50385228266976,0.446345711167286,0.0507513433694839,0.130725175142288,0.0404455810785294,B
1526517994.80803,0.518923765921037,1.49833281145705,0.489123406081485,0.0797856003046036,0.143417537212372,-0.00074500311166048,B
1526517994.80881,0.47312681692599,1.4924723219666,0.528301105318834,0.0800385773181915,0.142976120114326,0.00603478914126754,B
1526517994.82546,0.43306234664011,1.48643533335014,0.562207389062484,0.0830936655402184,0.154936760663986,-0.0789131000638008,B
1526517994.84,0.397742573808551,1.4806926614934,0.591069334067146,0.0836006030440331,0.154436454176903,-0.0724378973245621,B
1526517994.84098,0.368433292996592,1.47581105907065,0.613482984200353,0.0842960402369499,0.15398533642292,-0.0669176280498505,B
1526517994.85763,0.341488934246408,1.47156792512602,0.632715379039222,0.116070084273815,0.139825776219368,-0.116249419748783,B
1526517994.87172,0.317484769147187,1.46750537665422,0.648844189919239,0.17026574909687,0.0997575148940086,-0.0865090563893318,B
1526517994.87272,0.294833275041338,1.46377258699647,0.664026852063314,0.171413958072662,0.0993657037615776,-0.0822531506419182,B
1526517994.88717,0.268973622422427,1.46013087248191,0.682781525582501,0.216302767395973,0.0904251858592033,-0.090110220015049,B
1526517994.90421,0.241729821532959,1.4567903416533,0.702919842649322,0.242146700620651,0.0738153606653214,-0.151404410600662,B
1526517994.90598,0.214898644638027,1.45387047530109,0.723712090113316,0.244501188397408,0.0734789669513702,-0.147879883646965,B
1526517994.91939,0.191455922788336,1.45111681934516,0.743160554045156,0.246659368276596,0.0731539577245712,-0.144643604755402,B
1526517994.93519,0.173845823728739,1.44825549561751,0.758927728816349,0.251073747873306,0.0464715994894505,-0.142517015337944,B
1526517994.93612,0.157212514658521,1.44444363117971,0.776253820873976,0.252486884593964,0.0459984503686428,-0.138446271419525,B
1526517994.95072,0.142444663490661,1.43935761564181,0.794050145185398,0.31009903550148,0.0132249472662807,-0.0647706016898155,B
1526517994.96673,0.133781217589408,1.43337418449281,0.807815254660455,0.327385276556015,-0.0684180483222008,-0.0903845503926277,B
1526517994.96753,0.131032277769458,1.42624126427687,0.817449237512285,0.326835840940475,-0.0694203823804855,-0.083333246409893,B
1526517994.983,0.130921405693606,1.41824227745728,0.826565170478827,0.395337969064713,-0.0689258277416229,-0.12822237610817,B
1526517994.99879,0.129590740000995,1.41019684868396,0.838516682467447,0.394511491060257,-0.0701804161071777,-0.120315752923489,B
1526517994.99967,0.123892202557132,1.40262660690314,0.855700525072349,0.394492536783218,-0.0714192464947701,-0.112789638340473,B
1526517995.01428,0.111391449990579,1.39614402618585,0.879807753173775,0.430116355419159,-0.116210907697678,-0.178385406732559,B
1526517995.03032,0.0940189902513704,1.39094866329846,0.908951249511319,0.291678369045258,-0.162903338670731,-0.193629696965218,B
1526517995.03112,0.0733251402658098,1.3871574266034,0.941829947327114,0.295093894004822,-0.163588583469391,-0.189601555466652,B
1526517995.04653,0.0514215559343282,1.38487839272658,0.976311186588162,0.0964407548308372,-0.222967267036438,-0.15108896791935,B
1526517995.06179,0.0304414331644093,1.38310936849835,1.01040505035305,-0.102175682783127,-0.282881379127502,-0.0532455667853355,B
1526517995.06283,0.0106549878582401,1.38189895786385,1.04330735790915,-0.0984972938895226,-0.283107936382294,-0.0519807599484921,B
1526517995.07788,-0.00871202016202103,1.38132190182356,1.07498218927282,-0.0948557555675507,-0.28321647644043,-0.0514104887843132,B
1526517995.09429,-0.0303580729865597,1.38096448475596,1.10789088047907,-0.161798745393753,-0.295872360467911,0.0435567684471607,B
1526517995.09531,-0.0554383955953292,1.38112684090769,1.1427817524818,-0.157079562544823,-0.295841723680496,0.0431946218013763,B
1526517995.1095,-0.0832011475172918,1.38213106608014,1.17902496993512,-0.288216263055801,-0.28193524479866,0.0221500918269157,B
1526517995.12589,-0.112179477560473,1.38407608818715,1.21520563314111,-0.372804164886475,-0.253374069929123,0.0427619442343712,B
1526517995.12754,-0.140868901994871,1.38680645040881,1.25004979800209,-0.367897897958755,-0.252870887517929,0.0394329093396664,B
1526517995.14128,-0.166415563007178,1.39006362563327,1.28074904387705,-0.418024301528931,-0.18262380361557,0.109975852072239,B
1526517995.15966,-0.185662374257022,1.39346735652966,1.30437017331299,-0.415236473083496,-0.182017683982849,0.106078207492828,B
1526517995.1602,-0.196807281282926,1.39632746062413,1.31915205452068,-0.413856983184814,-0.18151718378067,0.102942921221256,B
1526517995.1733,-0.200520911650143,1.3990164995223,1.32583392484266,-0.387583792209625,-0.110237926244736,0.147247523069382,B
1526517995.19117,-0.199946272653773,1.40166084410261,1.32757650927246,-0.257429838180542,-0.0540947802364826,0.13117840886116,B
1526517995.19204,-0.197816711655979,1.40335260307011,1.32676032564719,-0.258109033107758,-0.0538114160299301,0.129613906145096,B
1526517995.20549,-0.197476860198519,1.40424368035199,1.32709148628964,-0.142248094081879,0.00592227233573794,0.126016840338707,B
1526517995.22064,-0.19674391023155,1.40441580418037,1.32661627087259,-0.104940108954906,0.0463560670614243,0.0807386711239815,B
1526517995.22159,-0.194790552196227,1.40421773513493,1.32459065336214,-0.105219624936581,0.0463232435286045,0.0809932351112366,B
1526517995.23691,-0.190608910634789,1.40372531758644,1.32023839351219,-0.105808146297932,0.0462414771318436,0.0816028043627739,B
1526517995.25259,-0.183595491033749,1.40293409820453,1.3130121122624,-0.0768891721963882,0.0726141110062599,0.0604768022894859,B
1526517995.25335,-0.174217259181643,1.40227561172852,1.30357470976747,-0.0783184990286827,0.0725038796663284,0.0613949969410896,B
1526517995.26892,-0.163513266642629,1.40193681719941,1.29271241819739,-0.0280472077429295,0.078046977519989,0.0126488143578172,B
1526517995.28432,-0.155097737258051,1.40129649108745,1.2832848318554,0.0625423341989517,0.0482608154416084,0.00444831373170018,B
1526517995.28518,-0.151086938313525,1.40053284496837,1.27799247007482,0.0619869530200958,0.0481317080557346,0.00529556768015027,B
1526517995.30072,-0.149623423221509,1.39997996071429,1.27589540568622,0.0610753111541271,0.0435060150921345,-0.0216553676873446,B
1526517995.31615,-0.150109595673049,1.39934163670162,1.27683111309044,0.0612510927021503,0.0433973073959351,-0.0210457798093557,B
1526517995.3169,-0.149922930493228,1.39887428907121,1.27810609954828,0.0612883791327477,0.0433174632489681,-0.0205857083201408,B
1526517995.33188,-0.147889566751871,1.39944304628902,1.27886572166215,0.00599118787795305,0.0354800336062908,-0.116638921201229,B
1526517995.348,-0.146575915821798,1.40213798872803,1.28107470618244,0.00864706747233868,0.0216537602245808,-0.233674585819244,B
1526517995.34877,-0.14932020085343,1.40742389879349,1.28633673056397,0.00832713954150677,0.022527277469635,-0.238897711038589,B
0,0,0,0,0,0,0,0,0
1526517996.00032,-0.219984481198266,1.42095412671647,1.34369965048105,0.0250224154442549,-0.00543753057718277,-0.0259921066462994,B
1526517996.01512,-0.218350536005426,1.42293814815679,1.34383609218495,-0.0294279251247644,0.00694166263565421,-0.0108562782406807,B
1526517996.01592,-0.215695643696713,1.42394177230901,1.3426781829455,-0.0300223436206579,0.00708901835605502,-0.0117418048903346,B
1526517996.031,-0.213930471496666,1.42294886385687,1.34132584428687,0.0247433818876743,-0.0255579799413681,0.147781312465668,B
1526517996.0468,-0.211636331247179,1.41986029907967,1.33863618982081,0.00358549691736698,-0.0209212359040976,0.102147907018661,B
1526517996.04755,-0.207731862952312,1.41582400896772,1.33456355955775,0.00383399613201618,-0.0215361975133419,0.106173515319824,B
1526517996.06281,-0.203979573507122,1.4116224000141,1.33081181722927,-0.00310972519218922,0.00333450711332262,-0.0307727940380573,B
1526517996.07954,-0.203536310402612,1.40845256981956,1.32998544769528,-0.00254606176167727,0.00282712117768824,-0.027694208547473,B
1526517996.08045,-0.20570851229903,1.40644837044902,1.33172014678648,-0.00179836014285684,0.00250119739212096,-0.0258297231048346,B
1526517996.0946,-0.209225955577387,1.4051078961721,1.33485776049407,-0.00537036778405309,-0.00196094601415098,-0.0377011001110077,B
1526517996.11088,-0.211868960342132,1.40422532297789,1.33753960459989,-0.0346987843513489,-0.00114559032954276,0.00613431772217155,B
1526517996.11166,-0.21211736963771,1.40353611616061,1.33824033175625,-0.0345154367387295,-0.00126009632367641,0.0067900475114584,B
1526517996.12613,-0.210996832431555,1.40317196534748,1.3375707169631,-0.0541081018745899,-0.00258726556785405,-0.0149907059967518,B
1526517996.14221,-0.207074195486767,1.40343703136504,1.33383659504345,-0.0292130541056395,-0.0124155124649405,-0.0253493171185255,B
1526517996.14299,-0.203709514936398,1.40430729622104,1.3303268441153,-0.0299353692680597,-0.0122709181159735,-0.0260754302144051,B
1526517996.15998,-0.199339589306501,1.40490129494712,1.32541326496176,-0.0307609066367149,-0.0121726542711258,-0.0265046879649162,B
1526517996.17423,-0.194267451972028,1.40501076833958,1.31972133822112,-0.0162375681102276,-0.0145349530503154,0.0482449233531952,B
1526517996.175,-0.188448676415733,1.40470558395714,1.31358675384393,-0.0171239078044891,-0.0145853627473116,0.0487232208251953,B
1526517996.19237,-0.182316072509257,1.40408051519677,1.30758267278182,0.000958012184128165,-0.00826494675129652,0.0253158807754517,B
1526517996.20579,-0.177846172086918,1.40320461553283,1.30336172279603,0.0164027754217386,-0.0211059879511595,-0.0350720435380936,B
1526517996.20663,-0.175263423338072,1.40278672427618,1.3009778070707,0.0160504933446646,-0.0211757831275463,-0.0345906652510166,B
1526517996.22456,-0.174444675992052,1.40295763700972,1.30051252773735,0.0146199427545071,-0.00111242663115263,-0.0287818722426891,B
1526517996.23858,-0.174101920401003,1.40316788624821,1.30040638197253,0.0145276430994272,-0.00107732589822263,-0.0289761088788509,B
1526517996.23947,-0.174611318521398,1.40340188164345,1.30096302643679,0.0145712634548545,-0.00103831209708005,-0.0292180627584457,B
1526517996.25325,-0.174072767436916,1.40345609361578,1.30021984599743,0.00173254660330713,-0.00881126336753368,-0.00328468671068549,B
1526517996.26932,-0.172891608098829,1.40319402338502,1.29869868539318,-0.0115698575973511,-0.0081530436873436,0.00626590847969055,B
1526517996.27012,-0.170699715669484,1.40281576613246,1.29642585265972,-0.0118667706847191,-0.00821621436625719,0.00669594155624509,B
1526517996.28508,-0.168875938473664,1.40233106817577,1.29452684414617,0.0143412314355373,-0.0155147751793265,0.00264088623225689,B
1526517996.30107,-0.168744431301491,1.40205216486786,1.29434767293453,-0.0112385768443346,-0.0121893845498562,-0.00306581147015095,B
1526517996.30198,-0.167979156190399,1.40205015623222,1.2933620345958,-0.0113649517297745,-0.0121897216886282,-0.00304232281632721,B
1526517996.31688,-0.167587048193848,1.40203935190325,1.29286471303484,-0.0114281037822366,-0.0121915368363261,-0.0030208237003535,B
1526517996.33373,-0.167274852148666,1.40225945915992,1.29283473007793,-0.0154374418780208,-0.00626469915732741,-0.0145175457000732,B
1526517996.33463,-0.166703590472512,1.40264677793161,1.29268314717508,-0.0155952926725149,-0.00619980413466692,-0.014878167770803,B
1526517996.34855,-0.166611969130153,1.40680643130133,1.29291326918284,0.00293530570343137,-0.00546640669927001,0.0194698758423328,B
1526517996.36501,-0.166699445746029,1.40652907302824,1.29289781509124,0.00513102253898978,-0.00456568039953709,0.00696573778986931,B
1526517996.36581,-0.167643866800302,1.40613088897824,1.29357027981853,0.00534885469824076,-0.00463087344542146,0.00732734380289912,B
1526517996.38025,-0.169529484866962,1.40435429939697,1.29519667170701,-0.00305347284302115,-0.00469477055594325,-0.0153351090848446,B
1526517996.39648,-0.171651969285121,1.40427053291123,1.29710562447177,-0.00269282492808998,-0.00470865191891789,-0.0153134111315012,B
1526517996.39742,-0.174356112892339,1.40430677364185,1.29979051742323,-0.00225748494267464,-0.0047026458196342,-0.0154257686808705,B
1526517996.41245,-0.17611886148502,1.40446967307126,1.30161752532631,-0.00556853739544749,-0.00536230811849236,-0.00705942278727889,B
1526517996.42847,-0.195003250642614,1.40377345154161,1.32020236786449,-0.0212530847638845,-0.00486746290698647,-0.00409403722733259,B
1526517996.42931,-0.195283657568647,1.40424582843313,1.32044089200139,-0.0212977435439825,-0.00478904135525227,-0.0045600445009768,B
1526517996.4444,-0.194477283049515,1.40485016803602,1.31975532404705,0.00125255540478975,-0.0104568554088473,-0.000632844807114452,B
1526517996.45942,-0.191941734323648,1.40533938185556,1.31744124838978,-0.00184452813118696,-0.00212115747854114,0.00194938760250807,B
1526517996.4601,-0.194953387619704,1.40564336112343,1.32038956396474,-0.00141583639197052,-0.00207113660871983,0.00155987392645329,B
1526517996.47592,-0.199461253013509,1.40597503012452,1.32452322106979,-0.000753918837290257,-0.00201666331849992,0.00109398912172765,B
1526517996.49234,-0.204009326884497,1.40615497445037,1.32891851660042,-0.00288166152313352,-0.0147587610408664,0.0208512060344219,B
1526517996.49288,-0.207229733545045,1.40615060699789,1.33235202185276,-0.0023640738800168,-0.0147594772279263,0.0207476560026407,B
1526517996.50754,-0.223521139835154,1.40902351404614,1.34858466111262,-0.0157190281897783,-0.0128278275951743,0.0315882079303265,B
1526517996.52464,-0.230245061898207,1.40792628526472,1.35517456086109,-0.0148286493495107,-0.0114640118554235,-0.00736557925119996,B
1526517996.5264,-0.228791156312452,1.40776982016634,1.35348096105151,-0.0150232026353478,-0.0114893950521946,-0.0071615744382143,B
1526517996.53959,-0.224690015576275,1.40753504479919,1.34917383202641,0.00877861585468054,-0.0233378298580647,-0.00844931043684483,B
1526517996.55877,-0.225204271881742,1.40760194635821,1.34956828518758,0.00884535443037748,-0.0233269594609737,-0.00853230059146881,B
1526517996.55933,-0.22531444917959,1.40802139250033,1.34958952629063,0.00877033546566963,-0.0232588984072208,-0.0089397244155407,B
1526517996.57108,-0.224174025804956,1.40837560047998,1.34849374210427,-0.0265064537525177,-0.0145650831982493,-0.0182114951312542,B
1526517996.58684,-0.218674794883841,1.40721792999112,1.34326328333861,0.00329982838593423,-0.0196510199457407,-0.0211887937039137,B
1526517996.588,-0.218166549738526,1.40755008595563,1.34319556924569,0.00314809312112629,-0.0195969827473164,-0.0214908216148615,B
1526517996.60274,-0.214174589929698,1.40564681553239,1.33982607350321,0.00407316163182259,-0.00783839076757431,-0.0339669659733772,B
1526517996.61902,-0.21529915702964,1.40643580678152,1.34130501427724,0.00408751657232642,-0.00770898815244436,-0.0347667001187801,B
1526517996.61979,-0.215359692283599,1.40695058346325,1.3413010577829,0.00398866320028901,-0.00762489018961787,-0.0352649465203285,B
1526517996.63469,-0.215085638273738,1.40699691551435,1.34089739143161,-0.00274811312556267,-0.00546584464609623,0.0371181555092335,B
1526517996.65047,-0.214536794819444,1.40672658205274,1.34028265414133,0.00527786649763584,-0.00200044177472591,0.0234512947499752,B
1526517996.65125,-0.214056659000895,1.40637200365481,1.33987393734479,0.0052755456417799,-0.00205841893330216,0.0238097961992025,B
1526517996.66649,-0.21507960346606,1.40615669495816,1.34100583069201,0.00659836921840906,-0.00421465607360005,-0.016545694321394,B
1526517996.68217,-0.217444049236387,1.40626043625607,1.34377190524747,-0.00448930216953158,0.00297397235408425,-0.00766505766659975,B
1526517996.68293,-0.220131053528616,1.40655558195009,1.3468371542656,-0.00412325607612729,0.00302227260544896,-0.00804472342133522,B
1526517996.69926,-0.222197016795961,1.40693822828784,1.34926611899543,-0.00387688493356109,0.00308476435020566,-0.00848705135285854,B
1526517996.71398,-0.223597044660103,1.40740767218763,1.35109095836662,-0.0104402070865035,0.011477273888886,0.0104199992492795,B
1526517996.71474,-0.225859906531573,1.40758631855178,1.35382406912225,-0.0101208547130227,0.0115063171833754,0.0101661821827292,B
1526517996.72999,-0.22479146848898,1.4111299298134,1.35300453600072,0.0127492863684893,0.000936993688810617,0.0387625955045223,B
1526517996.74613,-0.226930915658546,1.41074597515711,1.3550148638679,0.0139900539070368,-0.0141387721523643,0.0547265410423279,B
1526517996.74693,-0.228994752475735,1.40992534845906,1.35674556770483,0.0144943417981267,-0.0142698856070638,0.0554411448538303,B
1526517996.76149,-0.229761949576398,1.40879035484674,1.35750250640457,-0.0283132325857878,-0.0292380899190903,0.0238654501736164,B
1526517996.77804,-0.228408737669428,1.40769273905966,1.35633865001372,-0.0282805468887091,-0.0294157266616821,0.0249700304120779,B
1526517996.77997,-0.225487297222542,1.4067189882618,1.35366314155411,-0.0285279639065266,-0.0295743141323328,0.0260131992399693,B
1526517996.79306,-0.22166526745686,1.40584105717788,1.34969282969047,-0.0295871812850237,-0.0596253238618374,0.013889204710722,B
1526517996.80945,-0.218514256951549,1.40534088338718,1.34615298319487,-0.00190899893641472,-0.115844666957855,-0.0349546782672405,B
1526517996.81032,-0.216854993073875,1.40544384107003,1.34412569685005,-0.00219768285751343,-0.115827709436417,-0.0349948294460773,B
1526517996.82555,-0.216631998688162,1.40609296080737,1.34329670325316,-0.00322564831003547,-0.183500617742538,-0.0441877134144306,B
1526517996.84116,-0.217706584600405,1.4071279475683,1.34354607108592,-0.000100311219284777,-0.261609047651291,-0.0280412435531616,B
1526517996.842,-0.220524365602808,1.40850326252397,1.34525392141116,5.0984941481147e-05,-0.261385887861252,-0.0294652674347162,B
1526517996.85961,-0.224353808039126,1.41041860937637,1.3480263292874,0.000233921135077253,-0.261078208684921,-0.0314448662102222,B
1526517996.87272,-0.229143600208007,1.41301777023645,1.35196447260891,-0.00962872430682182,-0.340057969093323,-0.0616734549403191,B
1526517996.87375,-0.234319579193257,1.41656851220947,1.35631602459891,-0.00965159293264151,-0.339506268501282,-0.0652720034122467,B
1526517996.89121,-0.240133390397286,1.42147106498685,1.36094393047236,-0.031481496989727,-0.39714515209198,-0.110029719769955,B
1526517996.90471,-0.248017945225843,1.4276194271195,1.36746927878104,-0.0344609878957272,-0.433602690696716,-0.108717702329159,B
1526517996.90588,-0.257718341476484,1.43492144201657,1.37556713849259,-0.0349638871848583,-0.432587146759033,-0.116056218743324,B
1526517996.92071,-0.270708686429759,1.44341547836734,1.38619164415905,-0.0399116277694702,-0.436202555894852,-0.133754372596741,B
1526517996.93637,-0.288020194291587,1.45326505072002,1.40014897994991,-0.0405745729804039,-0.43499943614006,-0.143733873963356,B
1526517996.93731,-0.30664293674542,1.46403623554887,1.41504932614573,-0.0417176522314548,-0.433794021606445,-0.154577806591988,B
1526517996.95234,-0.323977857157294,1.47506355672099,1.42904949387397,-0.033184852451086,-0.403367340564728,-0.0887837111949921,B
1526517996.96824,-0.335451709068998,1.48608217209099,1.43823117294844,-0.052849542349577,-0.347381889820099,-0.0429213047027588,B
1526517996.96904,-0.333664776330334,1.49729368218288,1.43542695994348,-0.0566527098417282,-0.346495866775513,-0.0534316524863243,B
1526517996.98384,-0.320849406778835,1.50831417803368,1.42309830279329,-0.0172186642885208,-0.253294140100479,-0.0171305183321238,B
1526517996.99979,-0.296605990851967,1.51900935392947,1.40066524042927,0.0967333316802979,-0.176496282219887,-0.0340078435838223,B
1526517997.00066,-0.268495671267311,1.52961432519753,1.37493354938274,0.0925257280468941,-0.176003500819206,-0.0438160821795464,B
1526517997.01593,-0.266251058238484,1.54066355673472,1.37388892004513,0.0895312279462814,-0.175609603524208,-0.0544447377324104,B
1526517997.03239,-0.360302268227815,1.55252600421965,1.46702385396828,0.174089282751083,-0.0700216367840767,-0.0799344033002853,B
1526517997.03332,-0.970135132514457,1.56312108679047,2.07421970209036,0.173980042338371,-0.0698841884732246,-0.0926927253603935,B
1526517997.04748,-2.41776283546707,1.56033882962494,-2.76451411476852,0.111234530806541,0.0127779627218843,0.0351028367877007,B
1526517997.06432,-2.78145352884805,1.55063974302069,-2.40279609962267,-0.0407640337944031,0.0778303071856499,0.00449898885563016,B
1526517997.06514,-2.93435101691261,1.54096517851675,-2.24908770703737,-0.0417296327650547,0.0775885283946991,-0.00582729186862707,B
1526517997.07929,-3.0438383033133,1.53195259026219,-2.1357502409841,-0.0974824354052544,0.121727973222733,-0.0143870953470469,B
1526517997.09535,-3.1387656596282,1.52338458403012,-2.03474461334506,-0.101138599216938,0.121358573436737,-0.0231323186308146,B
1526517997.09584,3.07516930714298,1.51479902782023,-1.95947024937668,-0.104987435042858,0.120914861559868,-0.0315831415355206,B
1526517997.11105,3.04127838043756,1.50554869321345,-1.9215940319319,0.0633555948734283,0.19562603533268,-0.0933922380208969,B
1526517997.12689,3.03975990624841,1.49546127399194,-1.91842660500169,0.136208787560463,0.274080157279968,-0.0814504474401474,B
1526517997.12787,3.05863935316056,1.48502447890872,-1.93692889670646,0.136761680245399,0.273240357637405,-0.0919486805796623,B
1526517997.14302,3.08382899764443,1.47566467829655,-1.96187310951814,0.0613191612064838,0.329951047897339,0.0627171993255615,B
1526517997.15972,3.10973466226682,1.46782830207529,-1.98646657014054,-0.101281210780144,0.363142192363739,0.0807376652956009,B
1526517997.16046,3.12930702723245,1.4617118368635,-2.00302801022658,-0.0993446856737137,0.362494915723801,0.0746116191148758,B
1526517997.1749,3.13773325692529,1.45680937029531,-2.00725689262848,-0.0984461680054665,0.361949235200882,0.0697322487831116,B
1526517997.19171,3.13631215937277,1.45283662964674,-2.00201859216927,-0.116969704627991,0.365563631057739,0.00925317779183388,B
1526517997.19247,3.13326705085272,1.44935538641515,-1.99691302514114,-0.117356844246387,0.365147918462753,0.00579940434545279,B
1526517997.20621,3.13886402899942,1.44588711710624,-2.00238972692854,0.048076193779707,0.363638430833817,-0.051219929009676,B
1526517997.22495,-3.13016496537477,1.44252458267022,-2.01763959569568,-0.0279724020510912,0.331673979759216,-0.0697149038314819,B
1526517997.22586,-3.11301009188599,1.43939283484821,-2.03653084434245,-0.0256896652281284,0.331268489360809,-0.07277512550354,B
1526517997.23874,-3.09545772278159,1.43663852893708,-2.05548564343402,-0.0232655815780163,0.330903857946396,-0.0754163861274719,B
1526517997.2541,-3.07592947371812,1.43421539828313,-2.07525915794328,-0.0484084710478783,0.301890313625336,-0.0692891627550125,B
1526517997.25818,-3.0566404873528,1.43225694084047,-2.09380590395481,-0.045625027269125,0.3016217648983,-0.0710245296359062,B
1526517997.27004,-3.04130544473584,1.43064162282548,-2.10797927117962,-0.0768950656056404,0.223119810223579,-0.0652028918266296,B
1526517997.286,-3.02963586209973,1.42927233253656,-2.11867564448259,-0.0796239227056503,0.17202427983284,-0.0238359551876783,B
1526517997.28684,-3.01835972095481,1.428319311256,-2.12970772088447,-0.0779284313321114,0.171889409422874,-0.0245856232941151,B
1526517997.30199,-3.00955925382704,1.42732097762665,-2.13928488967655,-0.143743336200714,0.107202470302582,-0.0615084059536457,B
1526517997.31773,-3.00542810585648,1.42588796551313,-2.1451869677036,-0.14296543598175,0.106996558606625,-0.0628344416618347,B
1526517997.31863,-3.00859850596356,1.42402270367255,-2.1440996424497,-0.143174394965172,0.106725491583347,-0.0647250339388847,B
1526517997.33372,-3.01653268474562,1.42231652794431,-2.13821864293914,-0.243647679686546,0.0662828758358955,-0.0179953072220087,B
1526517997.34935,-3.02646355618257,1.42142224786433,-2.13041238413105,-0.255929917097092,0.0523562431335449,0.103890217840672,B
1526517997.35009,-3.03778691228183,1.42156936058157,-2.12173618170384,-0.25762003660202,0.0523781254887581,0.103850819170475,B
1526517997.36541,-3.05311781980906,1.42245534938423,-2.1097231840985,-0.306886970996857,0.0485421754419804,0.11189004778862,B
1526517997.38109,-3.07388311565405,1.42358499624733,-2.09277494449196,-0.321039080619812,0.0595422424376011,0.116198629140854,B
1526517997.38184,-3.10024482683106,1.42485733848827,-2.07093680175932,-0.324951976537704,0.0597280710935593,0.117245517671108,B
1526517997.39814,-3.13029977086352,1.42640134575178,-2.04670214198595,-0.329338192939758,0.0599514208734035,0.118658162653446,B
1526517997.41291,3.12138480764365,1.4282135527921,-2.02194457338298,-0.244784191250801,0.0630181804299355,0.166034325957298,B
1526517997.41365,3.08531699134795,1.43069517340977,-1.99321129245059,-0.24976721405983,0.0633677691221237,0.168683260679245,B
1526517997.42887,3.04446845330341,1.43377300605663,-1.96024704841815,-0.219804048538208,0.0973622128367424,0.18347629904747,B
1526517997.44469,3.00141334277852,1.43736627887795,-1.9257351758244,-0.129610612988472,0.142921105027199,0.150420725345612,B
1526517997.44544,2.95782151211864,1.44162382713946,-1.89101607955223,-0.134562149643898,0.143478512763977,0.155505701899529,B
1526517997.46013,2.91068874906804,1.44638118385244,-1.85287043412553,-0.153384685516357,0.19592946767807,0.0652036964893341,B
1526517997.47637,2.85769977104415,1.45111120614423,-1.80868970393504,-0.158427953720093,0.196505337953568,0.0713843405246735,B
1526517997.4775,2.79324618057213,1.45584974304926,-1.75347795054284,-0.164134725928307,0.197059974074364,0.0781996920704842,B
1526517997.49229,2.71707975499586,1.46021968999231,-1.68717718608888,-0.124537520110607,0.205684617161751,0.0505512058734894,B
1526517997.50879,2.63037329244443,1.46416169820108,-1.61053070954001,-0.0319296233355999,0.247753143310547,0.0107210529968143,B
1526517997.50969,2.53496633249904,1.46801612894414,-1.52505225244364,-0.0383501760661602,0.248155996203423,0.0192529894411564,B
1526517997.52536,2.4293449465814,1.47206346385942,-1.42914765831766,0.0848407074809074,0.266675293445587,0.00990939419716597,B
1526517997.54026,2.31340985543706,1.47586190689943,-1.32291923441486,0.255377024412155,0.260450720787048,-0.043698750436306,B
1526517997.54128,2.19091640262218,1.47944943135142,-1.21010101609915,0.250975012779236,0.260784387588501,-0.0326098874211311,B
1526517997.55912,2.06016328939883,1.4826275770144,-1.08938869709821,0.247490927577019,0.261069267988205,-0.0209905635565519,B
1526517997.57217,1.92086360042206,1.48547123723018,-0.960443121551671,0.34662863612175,0.255669891834259,-0.0796122029423714,B
1526517997.57293,1.77955625637481,1.48738012932521,-0.829276732855602,0.345171004533768,0.255830734968185,-0.0676522254943848,B
1526517997.58762,1.65099124752948,1.4883877733921,-0.711246423560308,0.437587291002274,0.213769420981407,-0.254900485277176,B
1526517997.6036,1.53340080876571,1.48980141836147,-0.604850017028141,0.529028713703156,0.135591939091682,-0.311001062393188,B
1526517997.6044,1.42225975509661,1.49120291027178,-0.504261156858365,0.53124463558197,0.135704353451729,-0.302259206771851,B
1526517997.61931,1.31803594439829,1.49253621253142,-0.408107792979856,0.51745879650116,0.0367494188249111,-0.308116108179092,B
1526517997.63524,1.2158060180723,1.49348355174627,-0.31064247115664,0.520734786987305,0.0368230380117893,-0.300821512937546,B
1526517997.63605,1.11276007195143,1.49440705826734,-0.208642578341306,0.524706244468689,0.0368939377367496,-0.293921679258347,B
1526517997.65161,1.00643863608818,1.49562067250365,-0.100119406590323,0.607027947902679,-0.0903792902827263,-0.317296057939529,B
1526517997.66742,0.895444221731952,1.49744002945932,0.0150963482134626,0.548861563205719,-0.183933258056641,-0.395983785390854,B
1526517997.66823,0.785088441282903,1.50012005466235,0.131415594214833,0.556145250797272,-0.183740422129631,-0.391853451728821,B
1526517997.68269,0.678240358440528,1.50368910049727,0.24539053582201,0.384272754192352,-0.294090449810028,-0.444488406181335,B
1526517997.69916,0.573727495673071,1.50849537605311,0.358181292671252,0.16505953669548,-0.321916878223419,-0.386779934167862,B
1526517997.70023,0.473980447971355,1.51436694243086,0.467592892704415,0.17311005294323,-0.321568518877029,-0.388889759778976,B
1526517997.71466,0.377345929903489,1.52087320739623,0.575044521064402,0.180465787649155,-0.321222692728043,-0.392680108547211,B
1526517997.73079,0.277352140263655,1.5278713338332,0.686771251982449,0.0307002700865269,-0.310491442680359,-0.261386185884476,B
1526517997.73184,0.144945348211574,1.53524663188889,0.831357968100377,0.0373162925243378,-0.310202121734619,-0.267488569021225,B
1526517997.74635,-0.0580349925694881,1.54235960669972,1.0459918715005,-0.0670764073729515,-0.305259644985199,-0.129116207361221,B
1526517997.7627,-0.385214537419128,1.54811458048907,1.3843141258623,-0.231574922800064,-0.253202170133591,0.0181491244584322,B
1526517997.7633,-0.83930121325288,1.55065271447202,1.84928267340855,-0.225107654929161,-0.253147810697556,0.0105860289186239,B
1526517997.77839,-1.26656747910528,1.54898642113367,2.28743536789654,-0.219290345907211,-0.253182768821716,0.0036641510669142,B
1526517997.79399,-1.54213813934872,1.54473330808455,2.57404430863082,-0.316510438919067,-0.194812893867493,0.200957298278809,B
1526517997.79533,-1.70138308122779,1.53997665702398,2.74439053086019,-0.312007397413254,-0.194948151707649,0.196198001503944,B
1526517997.80993,-1.80259218283342,1.53539247047378,2.85596074754033,-0.4053695499897,-0.130402654409409,0.255494624376297,B
1526517997.82602,-1.8817580619031,1.53108830046315,2.94363375406191,-0.468004643917084,-0.0887704342603683,0.250854045152664,B
1526517997.82672,-1.97618209945054,1.5260490463246,3.04156057506852,-0.464691519737244,-0.0889831706881523,0.245359241962433,B
1526517997.84179,-2.08045975282204,1.51924615735669,-3.14033833836242,-0.591816365718842,-0.0584725812077522,0.402442455291748,B
1526517997.85918,-2.15374019891602,1.51412940039095,-3.07154635968179,-0.589512228965759,-0.0587493069469929,0.396404236555099,B
1526517997.85973,-2.20926044016371,1.51298590411739,-3.01699247162838,-0.59039843082428,-0.0588147230446339,0.393148124217987,B
1526517997.87421,-2.26515704312318,1.51570554711357,-2.95976856277362,-0.685988187789917,-0.0167911611497402,0.47999382019043,B
1526517997.89097,-2.30953143465802,1.52089596164,-2.91427953094384,-0.43649634718895,0.0306308455765247,0.428617358207703,B
1526517997.89181,-2.33632892725169,1.52682295085364,-2.88778710915323,-0.44167822599411,0.0309089366346598,0.431743711233139,B
1526517997.9058,-2.37552848764113,1.53235288762695,-2.85099468188804,-0.30845183134079,0.0956203937530518,0.182385757565498,B
1526517997.92108,-2.42615944815341,1.53715121340721,-2.80506950506933,-0.144209861755371,0.138990938663483,0.158035054802895,B
1526517997.9247,-2.46233829371742,1.54125373731997,-2.77547814039434,-0.14771868288517,0.139120534062386,0.160443887114525,B
1526517997.9373,-2.47910380771982,1.54508330095056,-2.76630735428536,-0.150461167097092,0.139226317405701,0.163154348731041,B
1526517997.95294,-2.47873406146531,1.54907592958077,-2.77444077521413,-0.126100242137909,0.156975418329239,0.135041177272797,B
1526517997.95393,-2.46168152113187,1.55362712417178,-2.79898537986796,-0.128671169281006,0.157063916325569,0.138810038566589,B
1526517997.96892,-2.42397957583723,1.55895049322582,-2.84390407222959,-0.111198537051678,0.181677281856537,0.103380508720875,B
1526517997.98511,-2.29041513354185,1.56508174348029,-2.98465826917954,-0.0454612411558628,0.207655787467957,0.00673159677535295,B
1526517997.98595,-0.382720965262214,1.56915712559013,1.38372176427605,-0.049146756529808,0.207670778036118,0.0120186544954777,B
1526517998.00047,0.400243967799765,1.56359619325133,0.593566980499524,0.0622427612543106,0.236668407917023,-0.024969931691885,B
1526517998.01678,0.406134301729108,1.55756080729039,0.58008873967641,0.0598195306956768,0.236606746912003,-0.0194424334913492,B
1526517998.01793,0.344796945489748,1.55188143532663,0.633567780312873,0.0586552582681179,0.236515447497368,-0.0138003751635551,B
1526517998.03266,0.279816305689962,1.54708537851947,0.691031731813184,0.105558469891548,0.251626253128052,-0.086664691567421,B
1526517998.0487,0.227984476725703,1.54283793020077,0.736230334089698,0.0717457830905914,0.231161311268806,-0.0878351330757141,B
1526517998.04949,0.187714105694924,1.53866818689343,0.770766949003577,0.0720694437623024,0.231036067008972,-0.08350820094347,B
1526517998.06422,0.153808376944998,1.53362066204009,0.799631256625759,0.0915349051356316,0.209086894989014,0.0144810229539871,B
1526517998.08024,0.124364910928419,1.52724453679297,0.824316116414892,0.101914405822754,0.210401251912117,-0.022456806153059,B
1526517998.08108,0.0964286138815503,1.51978048711821,0.847585447548285,0.102405428886414,0.210048466920853,-0.0149017544463277,B
1526517998.09648,0.0771599505371952,1.51249623474624,0.862724655575743,0.1028236374259,0.20965051651001,-0.00756486272439361,B
1526517998.11181,0.0617117518911196,1.50574592810216,0.874478930554431,0.123417146503925,0.210836634039879,-0.139174997806549,B
1526517998.11256,0.0423955010484801,1.49938720639317,0.889873661984956,0.124402202665806,0.210403114557266,-0.132771447300911,B
1526517998.12815,0.018373973527746,1.49347117809493,0.909507382004382,0.204635411500931,0.161486387252808,-0.155385166406631,B
1526517998.14354,-0.0120485210994442,1.48807542430759,0.935550862454053,0.269626498222351,0.113310314714909,-0.164144545793533,B
1526517998.1443,-0.0442350581039236,1.48319712108404,0.964182572978206,0.272499710321426,0.112895376980305,-0.159363508224487,B
1526517998.15969,-0.0785032093474228,1.47798159436448,0.994833905200206,0.363286405801773,0.0436541773378849,-0.130885764956474,B
1526517998.17539,-0.11602108832697,1.47218024580495,1.02865821145634,0.367415457963943,0.0430997461080551,-0.125487461686134,B
1526517998.17643,-0.155538001761997,1.46634428375644,1.06582927042797,0.372169494628906,0.0425082184374332,-0.120278261601925,B
1526517998.19207,-0.195532846538121,1.46126813393653,1.10578384897239,0.426968842744827,-0.0467026680707932,-0.281674385070801,B
1526517998.20797,-0.238957978579522,1.45673070538512,1.1520072866034,0.422249168157578,-0.147062391042709,-0.328289002180099,B
1526517998.20886,-0.280581297018993,1.45256126208829,1.19951721762661,0.427974194288254,-0.147545590996742,-0.325526386499405,B
1526517998.22482,-0.31579250232531,1.44881763764225,1.24339654819317,0.256752669811249,-0.278868764638901,-0.289278149604797,B
1526517998.23926,-0.337294527856585,1.44532814452767,1.2754790109199,0.125519439578056,-0.33940377831459,-0.20510832965374,B
1526517998.24033,-0.343029441363782,1.44189462538574,1.29352355570334,0.127341479063034,-0.339839309453964,-0.202140405774117,B
1526517998.25475,-0.335042163253648,1.43874894725272,1.29965560543176,0.127398744225502,-0.340248554944992,-0.19885341823101,B
1526517998.27097,-0.318370043817897,1.43632288989224,1.29818803879985,0.0909772142767906,-0.367929905653,-0.186511620879173,B
1526517998.2721,-0.301243865897225,1.43471503179968,1.29638519130248,0.0892631784081459,-0.368146747350693,-0.184290185570717,B
