Time,Roll,Pitch,Yaw,AccelX,AccelY,AccelZ,Letter,Name
1526528409.14275,-0.168013218016806,1.30396763031881,0.0311885149635681,0.0133155584335327,0.01458446867764,0.0431487560272217,A
1526528409.15865,-0.170873044272382,1.30417304314521,0.0333907943982355,-0.0101905716583133,0.00977105740457773,0.0513102188706398,A
1526528409.15918,-0.173013903007212,1.30409243003583,0.0345867478354889,-0.00962143857032061,0.00974981393665075,0.0512903109192848,A
1526528409.17439,-0.174838556160361,1.30381270874129,0.035457056807125,0.0148401744663715,-0.0196971148252487,0.0328112989664078,A
1526528409.19048,-0.174848822640044,1.30332243913012,0.0350785826877445,-0.00675763748586178,0.0271857548505068,0.0173768289387226,A
1526528409.19102,-0.173408124937959,1.30279874115496,0.0335812328075357,-0.007045510224998,0.027047211304307,0.0179402641952038,A
1526528409.20617,-0.170279628174907,1.30213566587433,0.0300610199127034,0.00172231323085725,-0.0145104192197323,-0.00593091966584325,A
1526528409.22242,-0.16816791208918,1.30188344127609,0.0266158854379727,0.00121048605069518,-0.0145774008706212,-0.00559677788987756,A
1526528409.22338,-0.165798184993566,1.30188429356643,0.0224646739294683,0.000589510309509933,-0.0145771745592356,-0.00549294427037239,A
1526528409.23803,-0.163510676919829,1.30184466264276,0.0185775434081279,0.0180168282240629,-0.0106051601469517,0.000869955925736576,A
1526528409.25426,-0.161710342776086,1.30152920477693,0.015686718303269,0.0241702534258366,0.000739800743758678,0.0150414863601327,A
1526528409.25487,-0.159840092050727,1.30099179203525,0.0133335742260869,0.0237615834921598,0.000596696336288005,0.0156325381249189,A
1526528409.26986,-0.157796682254172,1.30030177533834,0.0113907246017549,0.016995882615447,-0.0114893075078726,0.000613076612353325,A
1526528409.28686,-0.156144735538817,1.29967382282674,0.0101372793277635,0.0226659532636404,-0.0119929853826761,-0.0139179667457938,A
1526528409.28741,-0.155882759880447,1.29927501832388,0.0103490379415143,0.0226562954485416,-0.0120998667553067,-0.0135275088250637,A
1526528409.3018,-0.156245938720004,1.29914837474955,0.0110808079168449,0.0227715000510216,-0.0121338395401835,-0.0134221324697137,A
1526528409.31983,-0.156717806420143,1.29922722700045,0.0118573076086145,0.000927310262341052,-0.0245638564229012,0.0226769521832466,A
1526528409.32073,-0.156813323930394,1.29916801882615,0.0115432431065863,0.000961525656748563,-0.0245797410607338,0.0227292906492949,A
1526528409.3335,-0.157048813365532,1.30317749658785,0.0108977783417836,0.00847612973302603,-0.0145395752042532,0.0400815568864346,A
1526528409.35051,-0.158568310275017,1.30258491909882,0.0115476137661506,0.0205445997416973,-0.0257285479456186,0.0182743314653635,A
1526528409.35136,-0.160959796736992,1.30170993387261,0.0131296869718898,0.0213054902851582,-0.0259607937186956,0.0190062038600445,A
1526528409.36575,-0.159810114638076,1.30214192276576,0.011114782441703,-0.00452942308038473,-0.0445990897715092,-0.00882196612656116,A
1526528409.38432,-0.162723496774841,1.30147081296432,0.0130374991143836,-0.00366133125498891,-0.0447774417698383,-0.00830770656466484,A
1526528409.38675,-0.16489810282578,1.301038695588,0.0147751130748908,-0.00302208377979696,-0.0448925122618675,-0.00799120217561722,A
1526528409.39717,-0.166409840108768,1.30073306365257,0.0162020262822928,-0.0276918988674879,-0.0710512772202492,-7.67086094128899e-05,A
1526528409.41285,-0.168217630296716,1.30039360191267,0.01792290834973,-0.0263223238289356,-0.121114432811737,-0.000994172296486795,A
1526528409.41626,-0.171443833269004,1.2999831896636,0.0209425521746523,-0.0254054702818394,-0.121224142611027,-0.000750147853977978,A
1526528409.42984,-0.175262370532477,1.29963256770228,0.0242251845563832,-0.0355097912251949,-0.206263676285744,-0.00753644295036793,A
1526528409.44489,-0.179460927648231,1.29940544218689,0.0276163391875032,-0.0618601180613041,-0.305964440107346,-0.00159914325922728,A
1526528409.44556,-0.183416333043622,1.29926996671595,0.0307481891067809,-0.0607933886349201,-0.306000769138336,-0.00166214932687581,A
1526528409.46077,-0.187947910252105,1.29932802473964,0.0344492075937285,-0.0596093535423279,-0.305985182523727,-0.00194147508591413,A
1526528409.47696,-0.19334314274062,1.29969789136576,0.038281496374713,-0.100890375673771,-0.417488873004913,-0.0151538169011474,A
1526528409.47749,-0.200030676733178,1.30054529085738,0.0425617870929841,-0.0992963016033173,-0.4172622859478,-0.0163040515035391,A
1526528409.49212,-0.207743980141254,1.30216455743497,0.0471295832749416,-0.121359579265118,-0.507972002029419,-0.069472037255764,A
1526528409.50802,-0.216791642499412,1.30475076041513,0.052572613402614,-0.122646175324917,-0.563273310661316,-0.159297436475754,A
1526528409.50865,-0.226709099559944,1.30877490461844,0.058713856894057,-0.120975725352764,-0.562223076820374,-0.163656204938889,A
1526528409.52444,-0.237516580709433,1.31456555459752,0.0658184196769329,-0.119568303227425,-0.56073933839798,-0.169740363955498,A
1526528409.53983,-0.248631112090719,1.32217764297533,0.0735026445276882,-0.174037501215935,-0.589783012866974,-0.223827168345451,A
1526528409.54047,-0.260705409611657,1.33167072572497,0.0818938723902366,-0.173536822199821,-0.587490797042847,-0.233476504683495,A
1526528409.55584,-0.274692965699541,1.34315303013389,0.0917213057317543,-0.182206824421883,-0.562649011611938,-0.268634021282196,A
1526528409.57166,-0.290605804111606,1.35678639330138,0.103037720086078,-0.190061703324318,-0.511536598205566,-0.269974648952484,A
1526528409.57221,-0.308543695644219,1.37269954846421,0.11591291390333,-0.19115187227726,-0.508280813694,-0.28593972325325,A
1526528409.58747,-0.326771156345313,1.39033080565301,0.129003757570272,-0.221042886376381,-0.412998795509338,-0.181481212377548,A
1526528409.6037,-0.342417078811845,1.40872927130657,0.140124276963834,-0.224477484822273,-0.409863173961639,-0.199479967355728,A
1526528409.60442,-0.353301105996812,1.42725146182978,0.147000198724742,-0.229160308837891,-0.407043933868408,-0.21725407242775,A
1526528409.6211,-0.35711229303151,1.44554192364231,0.147740625931819,-0.177322238683701,-0.273428559303284,-0.13011634349823,A
1526528409.63524,-0.354073946881831,1.46360350047704,0.142861286152806,-0.062071904540062,-0.122606717050076,-0.135488837957382,A
1526528409.63591,-0.349041212399981,1.48162212250761,0.137545295555119,-0.0687099620699883,-0.120840452611446,-0.152153760194778,A
1526528409.65163,-0.345589617643464,1.49980637536093,0.135210212201272,0.0212048832327127,0.0452260226011276,-0.143315836787224,A
1526528409.66689,-0.343794721498238,1.51782282950973,0.135170909388146,0.0590915195643902,0.174286931753159,-0.126693904399872,A
1526528409.66752,-0.347060581040094,1.53567169848687,0.140012024979723,0.0531891696155071,0.175072893500328,-0.14352060854435,A
1526528409.68495,-0.378688725711465,1.55372545251251,0.172916395494232,0.0475553423166275,0.175543993711472,-0.160683557391167,A
1526528409.69907,-2.41216028243015,1.56829207792471,2.2066180062761,0.11218835413456,0.326321333646774,-0.154042944312096,A
1526528409.69987,3.025738768477,1.55106749516565,3.05092513218671,0.108239002525806,0.326129853725433,-0.171771213412285,A
1526528409.71657,2.99077922488904,1.5336639559544,3.08388674875954,0.103583805263042,0.430890262126923,-0.0728657841682434,A
1526528409.73109,2.98583975007759,1.5174164568143,3.08581099958119,0.0964445024728775,0.49703449010849,0.0404920168220997,A
1526528409.7319,2.98350312109033,1.50310988591926,3.08453736518549,0.094073198735714,0.496169000864029,0.0264093298465014,A
1526528409.74637,2.97979578256698,1.49123065974192,3.08449139654043,0.0328809507191181,0.531550049781799,0.0666826814413071,A
1526528409.76232,2.9715791940884,1.48175930160291,3.08938431607877,0.0306400377303362,0.530752539634705,0.0574889108538628,A
1526528409.76333,2.95650229914222,1.47429915566075,3.10187743479634,0.0279534719884396,0.530061483383179,0.050424512475729,A
1526528409.77821,2.93613533736345,1.46802996679547,3.12042769780777,-0.0467468537390232,0.523181796073914,-0.00817333068698645,A
1526528409.79438,2.91432335695097,1.46234043591662,3.1406163600202,-0.0248469356447458,0.513976097106934,-0.0509555526077747,A
1526528409.79514,2.89400186889536,1.45713679513964,-3.12466711001516,-0.028252249583602,0.513399362564087,-0.0554520636796951,A
1526528409.80999,2.88080534199955,1.45228701032512,-3.11468160663096,0.0116138746961951,0.529179811477661,-0.0734933912754059,A
1526528409.82582,2.87873005134153,1.44750820998629,-3.11676225668622,0.0159730426967144,0.521950662136078,-0.0586169250309467,A
1526528409.8265,2.88507822868196,1.44259080180797,-3.12825610171145,0.0154897924512625,0.521333932876587,-0.0635363310575485,A
1526528409.84203,2.89550838257668,1.4378145273007,3.13866459004901,0.0156278125941753,0.520711958408356,-0.0684608668088913,A
1526528409.85759,2.90600903526356,1.43384593407052,3.12284111087817,-0.0608727931976318,0.53517735004425,0.0236203614622355,A
1526528409.8582,2.91196527527848,1.43145895148856,3.11245320556855,-0.0606196671724319,0.534848630428314,0.021130733191967,A
1526528409.87364,2.90997332226461,1.43080727467891,3.11057372914111,-0.122224882245064,0.519331276416779,0.114560015499592,A
1526528409.88935,2.90152608907897,1.43175592389972,3.1157983218535,-0.0831542611122131,0.539391219615936,0.142267689108849,A
1526528409.88989,2.88759412067794,1.43461910005348,3.12725513271161,-0.0843138545751572,0.539783954620361,0.145484954118729,A
1526528409.90512,2.86690778075035,1.43944233817938,-3.13734754741633,-0.00969343632459641,0.55252742767334,0.137178257107735,A
1526528409.92116,2.84099239618076,1.4456715957079,-3.11377566299457,-0.0111189046874642,0.553324103355408,0.144042238593102,A
1526528409.92182,2.81302226563142,1.4529385123692,-3.08871201194279,-0.0121104493737221,0.554204761981964,0.151949733495712,A
1526528409.93698,2.7845760444833,1.46048964846532,-3.06476611138455,0.0742752850055695,0.48845973610878,0.0639725774526596,A
1526528409.9539,2.76065710830232,1.46791093578344,-3.04704352736391,0.066887803375721,0.48631963133812,-0.069462962448597,A
1526528409.95483,2.74735619635736,1.47499430726345,-3.04206352318548,0.0683304071426392,0.487022161483765,-0.0624389089643955,A
1526528409.96856,2.74614283485449,1.48116165927068,-3.0513387237891,-0.0712568312883377,0.501539707183838,-0.133616372942924,A
1526528409.98648,2.75456990434093,1.48620850277266,-3.07290269693299,-0.181470096111298,0.560480952262878,-0.0865693613886833,A
1526528409.98751,2.77277134400898,1.49059709987465,-3.10602418057342,-0.17846405506134,0.560842156410217,-0.0830571949481964,A
1526528410.00026,2.79756236315354,1.49538084790255,3.13677076700569,-0.174994230270386,0.561213970184326,-0.0792603716254234,A
1526528410.02029,2.82719168694233,1.5017689035991,3.09228862423387,-0.189756080508232,0.545775294303894,0.0899563878774643,A
1526528410.02097,2.8548451737507,1.51064410265871,3.05099727367748,-0.185429349541664,0.54634815454483,0.0978867411613464,A
1526528410.0324,2.86545727429043,1.52267903186388,3.02803322101376,-0.169668793678284,0.472948431968689,0.222278118133545,A
1526528410.05016,2.83564762190605,1.53802422180774,3.04602706114153,-0.112804800271988,0.414654701948166,0.111608117818832,A
1526528410.05084,2.63755192840156,1.55525402954315,-3.05261917611504,-0.110441915690899,0.415070861577988,0.129243895411491,A
1526528410.06411,0.830224233765027,1.56342888578554,-1.26034080858793,-0.108373522758484,0.41516450047493,0.147823631763458,A
1526528410.08134,0.120522574692561,1.54687656895962,-0.567103001480403,-0.0390236936509609,0.409046202898026,-0.054640419781208,A
1526528410.08419,-0.0334661094981781,1.52777654233634,-0.430399903783323,-0.0347090773284435,0.408407062292099,-0.035401962697506,A
1526528410.09693,-0.115677921407301,1.50770444685715,-0.364835739037443,-0.00470090797170997,0.2997986972332,-0.162346929311752,A
1526528410.11175,-0.170781481465885,1.48758593838547,-0.325284672298786,0.0367085076868534,0.0244941134005785,-0.246723264455795,A
1526528410.11243,-0.20173418343393,1.46858012627992,-0.308317222626115,0.0430282838642597,0.0227345731109381,-0.228659525513649,A
1526528410.12754,-0.209796586554808,1.45112239413026,-0.313151988942697,0.0944440364837646,-0.2481649518013,-0.203969061374664,A
1526528410.14402,-0.204441519185596,1.43480695401419,-0.329973091981306,0.0971036702394485,-0.25024488568306,-0.187992453575134,A
1526528410.14473,-0.193238212595253,1.41832900287411,-0.350141135294893,0.0987462624907494,-0.252613216638565,-0.17168927192688,A
1526528410.15931,-0.183406059864149,1.40038134507351,-0.366696820866253,0.207519963383675,-0.409825503826141,-0.0366679355502129,A
1526528410.1755,-0.177023831812952,1.38035813573676,-0.378863666207375,0.269906222820282,-0.593853771686554,0.00098248990252614,A
1526528410.17617,-0.173441247835207,1.35878056979625,-0.389134414556115,0.272886961698532,-0.598166406154633,0.0219252854585648,A
1526528410.19131,-0.175238303975977,1.33657957621332,-0.394865210628877,0.26128688454628,-0.756032824516296,-0.181598857045174,A
1526528410.20742,-0.181044886497814,1.31601435665333,-0.396412941787237,0.137543767690659,-0.839502215385437,-0.463846266269684,A
1526528410.20823,-0.190315447932507,1.29925845806388,-0.393949215793405,0.142900630831718,-0.843860924243927,-0.448390901088715,A
1526528410.22371,-0.201067865752381,1.28718214999558,-0.389533896753365,0.148049011826515,-0.847170114517212,-0.43757164478302,A
1526528410.23931,-0.211293669471105,1.27929575541911,-0.38529178540778,-0.0167230274528265,-0.831019937992096,-0.419135898351669,A
1526528410.24005,-0.219044862340554,1.27460035301092,-0.382851298697782,-0.0135702239349484,-0.832379877567291,-0.415224760770798,A
1526528410.25479,-0.223682707469779,1.27221505849917,-0.382785357318072,-0.058725468814373,-0.750284612178802,-0.230772569775581,A
1526528410.27066,-0.227210334995399,1.27123920185115,-0.383043836190289,-0.0103848222643137,-0.613746583461761,-0.0855189487338066,A
1526528410.27133,-0.229961004721932,1.27059891933132,-0.38320306084213,-0.00945479050278664,-0.613935708999634,-0.0851072743535042,A
1526528410.28708,-0.231539109443065,1.26933044014404,-0.383188039533574,-0.0327550806105137,-0.469276815652847,0.0150557551532984,A
1526528410.30247,-0.230701385843708,1.26695412388078,-0.384121425882539,-0.0324785299599171,-0.469985097646713,0.0173209458589554,A
1526528410.30331,-0.225874269296122,1.26371565343809,-0.388095258343325,-0.0331935696303844,-0.470959007740021,0.0206578876823187,A
1526528410.31951,-0.216317180780938,1.26034270845558,-0.395723896498936,-0.100218042731285,-0.356749624013901,-0.0245812721550465,A
1526528410.33406,-0.203969848464986,1.25744515964717,-0.405728398018138,-0.0819250866770744,-0.22832053899765,-0.0991273075342178,A
1526528410.33472,-0.190262133056518,1.25528803096667,-0.417001278681806,-0.0856806710362434,-0.228987693786621,-0.096285454928875,A
1526528410.35193,-0.177065184247675,1.2544255654095,-0.428042863933605,-0.0298394784331322,-0.134239181876183,-0.156070947647095,A
1526528410.36616,-0.165216363670103,1.25491648850031,-0.437875389426237,0.0549827553331852,-0.0448379069566727,-0.131413012742996,A
1526528410.36683,-0.154252472593188,1.25662490625767,-0.446477604542951,0.0513705983757973,-0.0443085692822933,-0.132476344704628,A
1526528410.38465,-0.14492327606786,1.25901993556016,-0.453136940124097,0.0481907390058041,-0.043571162968874,-0.134301483631134,A
1526528410.39841,-0.137289109939364,1.26151263639544,-0.457954369003273,0.080230638384819,0.0268011093139648,-0.0438550263643265,A
1526528410.39973,-0.130890394304119,1.26355265011179,-0.461509898966129,0.0780467987060547,0.0274200588464737,-0.0455218739807606,A
1526528410.4146,-0.0957643948631215,1.2660810012366,-0.492697006075114,0.0527658648788929,0.0657182857394218,0.0184192955493927,A
1526528410.42985,-0.0919805565516812,1.2675133709168,-0.494688955800831,0.0477869547903538,0.0908510312438011,0.0162645224481821,A
1526528410.43043,-0.0897784151074264,1.26883934060442,-0.495692269949879,0.0470185056328773,0.0912462025880814,0.0150635922327638,A
1526528410.4454,-0.0901751924621,1.2699430773154,-0.494676244421793,0.0559064671397209,0.10632910579443,0.0231585651636124,A
1526528410.46142,-0.0918846841137164,1.27087416973825,-0.492873912298537,0.0563293471932411,0.106604605913162,0.0222268663346767,A
1526528410.46202,-0.0956714809245172,1.2714282331795,-0.489190851966288,0.0573926530778408,0.106768153607845,0.0215951465070248,A
1526528410.4775,-0.0995745289490436,1.27189873488761,-0.484985768592148,0.0403355918824673,0.110675729811192,0.0096830353140831,A
1526528410.49336,-0.103092001864694,1.27247752295182,-0.480451456692488,-0.0136377708986402,0.0964569672942162,-0.00377410626970232,A
1526528410.49392,-0.104540132925143,1.27319498140022,-0.477547621124865,-0.0132860047742724,0.0966675877571106,-0.00450031459331512,A
1526528410.50889,-0.104033683614731,1.27390327713312,-0.476412512316542,-0.0246429461985826,0.0912598073482513,0.0235128365457058,A
1526528410.52495,-0.103124945569427,1.27435844962606,-0.476075527868751,-0.00273538660258055,0.0981677696108818,0.0357263647019863,A
1526528410.52549,-0.103364865080277,1.27446175091863,-0.475082666725693,-0.00267586950212717,0.0981979444622993,0.0356208719313145,A
1526528410.54125,-0.104594333783575,1.27443615813617,-0.473582039904553,-0.00231622811406851,0.0981904715299606,0.0356079526245594,A
1526528410.55666,-0.106837146894927,1.27417623995639,-0.471267751975788,-0.0173244196921587,0.0784154310822487,0.0206950549036264,A
1526528410.55739,-0.109107171235259,1.27370505460109,-0.468856267892885,-0.0166157148778439,0.0782776027917862,0.0210714526474476,A
1526528410.57243,-0.110449226631269,1.27297124203028,-0.467191281432696,-0.032337449491024,0.0593247376382351,0.0169192031025887,A
1526528410.58837,-0.110968694641655,1.27216942605556,-0.466264667405394,-0.0364040546119213,0.0413431748747826,0.0104771805927157,A
1526528410.58905,-0.111097300090841,1.27120786504456,-0.465431269581403,-0.0362645760178566,0.0410598330199718,0.0113861914724112,A
1526528410.60505,-0.127789393099207,1.27010320204509,-0.448670236916277,-0.0268596857786179,0.0181807428598404,0.0159657318145037,A
1526528410.6205,-0.126896007070398,1.26883030899838,-0.449229568784339,-0.0269683133810759,0.0178029611706734,0.0172051023691893,A
1526528410.62123,-0.125715039438823,1.26735056588876,-0.450522321969533,-0.0271396338939667,0.017361843958497,0.0186506621539593,A
1526528410.63622,-0.1248629591296,1.26558985998372,-0.451669424888778,-0.0277171041816473,0.00984572246670723,0.0230194889008999,A
1526528410.65303,-0.145896724600259,1.26350249633764,-0.431881197470153,-0.0439619049429893,-0.0103300958871841,0.00138469645753503,A
1526528410.65367,-0.143396154867003,1.26178287492034,-0.434510097859922,-0.0444762110710144,-0.0108516560867429,0.0031155226752162,A
1526528410.66779,-0.154146172776859,1.25960586711,-0.424562995724557,-0.032654482871294,-0.0261491611599922,-0.00417056772857904,A
1526528410.68572,-0.151928974057729,1.25780357781743,-0.426930621106461,-0.0330658480525017,-0.0267025530338287,-0.00237160851247609,A
1526528410.68704,-0.150747138396906,1.25629685593646,-0.427947101726761,-0.0332103557884693,-0.0271675642579794,-0.000899830833077431,A
1526528410.69942,-0.15084128551288,1.25504579572914,-0.42719709044111,-0.00573536613956094,-0.027280654758215,-0.0325346551835537,A
1526528410.72001,-0.150981476167282,1.25404932046469,-0.426152550377895,-0.0262560583651066,-0.0578487403690815,-0.0214730780571699,A
1526528410.72067,-0.150193876812337,1.25331565753108,-0.426675450294895,-0.0263942964375019,-0.0580775141716003,-0.0207470413297415,A
1526528410.73129,-0.149169076492702,1.25252267680741,-0.428836419951405,-0.0174434166401625,-0.0665498524904251,0.0228006821125746,A
1526528410.7492,-0.149007456659419,1.25168410998307,-0.4305800002451,-0.00142977421637625,-0.0533085651695728,0.000615974538959563,A
1526528410.74992,-0.1495879088888,1.25074736779456,-0.43173753797183,-0.00111716357059777,-0.053602859377861,0.00146826903801411,A
1526528410.76374,-0.150165799873891,1.24992751000442,-0.433201358544281,-0.000820981455035508,-0.0538611151278019,0.0022104843519628,A
1526528410.779,-0.150068255740536,1.24937403483081,-0.434847844374063,-0.00863115955144167,-0.0610701255500317,-0.0226257462054491,A
1526528410.77957,-0.149173838246393,1.24904249109798,-0.436441495848961,-0.00886381510645151,-0.0611749179661274,-0.0222725737839937,A
1526528410.79471,-0.146315002267804,1.24637320670151,-0.439127765700789,-0.000416821334511042,-0.0392562933266163,-0.0325290374457836,A
1526528410.81067,-0.145035541680909,1.24622425253883,-0.439556397919823,-0.000616835022810847,-0.0361452139914036,-0.0418821386992931,A
1526528410.81121,-0.143210970684273,1.24629575075978,-0.440265289861951,-0.00120233558118343,-0.036122415214777,-0.0418656431138515,A
1526528410.82643,-0.14211237710666,1.24691230572359,-0.440449580358634,0.0132149774581194,-0.0272590257227421,-0.0558068640530109,A
1526528410.84241,-0.142034658921268,1.24807312929631,-0.439704779164447,0.0130346827208996,-0.0268902294337749,-0.0568929575383663,A
1526528410.84316,-0.143481626523593,1.24934226834653,-0.437826725884499,0.0133167784661055,-0.0264884866774082,-0.0581497550010681,A
1526528410.85842,-0.145000775369165,1.25065353919674,-0.436532172378712,0.0281230695545673,-0.0107551869004965,-0.0146655160933733,A
1526528410.87425,-0.146189726380877,1.25180272553231,-0.4360070345672,0.0064837634563446,0.00155346980318427,0.0113919954746962,A
1526528410.87479,-0.146749215333674,1.25273243189081,-0.43599428766846,0.00652824062854052,0.00184462568722665,0.0104929376393557,A
1526528410.89024,-0.141276572844452,1.25542885926322,-0.441127312254615,0.0165891963988543,0.0219562705606222,0.02109544724226,A
1526528410.9063,-0.141042875756569,1.25569971993715,-0.441150649623472,0.0130480043590069,0.0262364149093628,0.00611069751903415,A
1526528410.90689,-0.141034751143591,1.25574829050595,-0.440854683449714,0.0130390208214521,0.0262514669448137,0.00606533046811819,A
1526528410.92191,-0.142069192547275,1.25583878926369,-0.439209414088834,0.0133441649377346,0.0262795034796,0.00593493040651083,A
1526528410.9381,-0.143709967357842,1.25604993592511,-0.436700600346231,0.0283906478434801,0.0285268984735012,-0.0185823626816273,A
1526528410.93864,-0.145041575650078,1.25639872347802,-0.434464223538471,0.028750654309988,0.0286348164081573,-0.0189698617905378,A
1526528410.95478,-0.14609266158969,1.2567582965796,-0.432837773190647,0.00587489455938339,0.0165999550372362,0.00827833171933889,A
1526528410.96948,-0.145994088804203,1.25705486730945,-0.432739571699675,0.0091759255155921,0.0240767784416676,0.0185932833701372,A
1526528410.97026,-0.145730911282422,1.25717066686899,-0.433295129759985,0.00907957088202238,0.0241125095635653,0.0184961073100567,A
1526528410.98626,-0.142206437282762,1.25746060168414,-0.437398188572653,0.00903251301497221,0.0206008423119783,0.00804888736456633,A
1526528411.00129,-0.141400884090164,1.25736510564659,-0.438795912747762,0.00879951007664204,0.0205714032053947,0.00817391742020845,A
1526528411.00214,-0.141092784905492,1.25720482021199,-0.439369378003949,0.00872690323740244,0.0205219704657793,0.00833824742585421,A
1526528411.01762,-0.140927502250892,1.25691667563848,-0.439503647541781,0.0250723417848349,0.0261550918221474,0.000605911307502538,A
1526528411.03317,-0.133955344336139,1.2560069280619,-0.445716933894487,0.0185389313846827,0.0158335287123919,0.000232387319556437,A
1526528411.03382,-0.134112946466218,1.25535738059775,-0.444945718996023,0.0186698660254478,0.0156322177499533,0.000837885367218405,A
1526528411.05059,-0.129179242950544,1.25544397126397,-0.448932324870791,0.0161348264664412,0.00746510829776525,0.00803724583238363,A
1526528411.06484,-0.123705091738576,1.25446644072492,-0.453473053106417,0.0072715156711638,0.00589499203488231,-0.0168733261525631,A
1526528411.06571,-0.124600026624429,1.25379158258118,-0.452027017289018,0.00762746948748827,0.00568484049290419,-0.0162714701145887,A
1526528411.0843,-0.125354578101206,1.25333529116004,-0.450871100085951,0.00791504699736834,0.00554250553250313,-0.0158706679940224,A
1526528411.09683,-0.126336292696969,1.25298250858802,-0.449651657143076,0.00180683063808829,-0.0130460700020194,-0.00632984098047018,A
1526528411.09746,-0.127386785860792,1.25255371628698,-0.448560442191206,0.00218420499004424,-0.0131801506504416,-0.00596738420426846,A
1526528411.11279,-0.125919848257781,1.25248514488442,-0.449874428302359,0.0108312973752618,-0.00638093054294586,0.00280693988315761,A
1526528411.12838,-0.129255793788995,1.25181627076411,-0.446558369651549,-0.00593458721414208,-0.0146928923204541,-0.00637007178738713,A
1526528411.12898,-0.130990139988825,1.25145228423336,-0.444707888748674,-0.00535015575587749,-0.0148071013391018,-0.00609800033271313,A
1526528411.14409,-0.134130541635115,1.25136796065374,-0.441576520548462,-0.0138989333063364,-0.0265065506100655,0.00848420802503824,A
1526528411.16004,-0.134525155789165,1.25092544905861,-0.440946190664501,-0.0137197878211737,-0.026645602658391,0.00888391304761171,A
1526528411.16056,-0.134421117957577,1.25019045750458,-0.440508634319436,-0.0136587135493755,-0.0268769729882479,0.00957963056862354,A
1526528411.17642,-0.134051439216328,1.2493728862545,-0.440450538098403,-0.0139146205037832,-0.0167284477502108,0.00477935187518597,A
1526528411.19209,-0.134212389178755,1.24868506602936,-0.440204648458965,0.00386224361136556,-0.0200740173459053,-0.0475745685398579,A
1526528411.19264,-0.134836896147538,1.24846526552222,-0.439642887774952,0.00408618431538343,-0.0201436225324869,-0.0473944880068302,A
1526528411.20786,-0.13560704535729,1.24870960086885,-0.438696692341816,0.00142793939448893,-0.021744716912508,-0.0356330871582031,A
1526528411.22408,-0.136748735779095,1.24898349385823,-0.437447124925404,-0.00360526260919869,-0.0100003387778997,-0.0130818784236908,A
1526528411.22463,-0.138500593206191,1.24921922904216,-0.435535003881564,-0.00308728800155222,-0.00992580503225327,-0.0133793950080872,A
1526528411.23976,-0.140163924658447,1.24922300016823,-0.433519228914424,-0.00256716483272612,-0.00992461293935776,-0.0134559497237206,A
1526528411.25593,-0.14131500280585,1.24921881299556,-0.431881228286163,-0.0300536826252937,-0.0212174393236637,-0.0200490709394217,A
1526528411.25647,-0.141632030743899,1.24933615433139,-0.431075062096896,-0.0299701988697052,-0.021180359646678,-0.0201734136790037,A
1526528411.27142,-0.146075703322626,1.24912374797961,-0.426623787120938,-0.0193808488547802,-0.0170971006155014,-0.0103028770536184,A
1526528411.28762,-0.14908295647093,1.24940495397524,-0.423703249518949,-0.0121629172936082,-0.00409929826855659,-0.000834079284686595,A
1526528411.28815,-0.149012223597151,1.24965643164259,-0.423702775001413,-0.0122204376384616,-0.00401988951489329,-0.00106672826223075,A
1526528411.30343,-0.149028478478756,1.24982296785031,-0.423636895874629,-0.0122388275340199,-0.00396733591333032,-0.00122376508079469,A
1526528411.31971,-0.148995354602102,1.24981451984402,-0.423708773289408,-0.00646489067003131,-0.00747952284291387,0.0103518757969141,A
1526528411.32047,-0.148960386502149,1.24988791222159,-0.423904229846958,-0.00648613693192601,-0.00745637016370893,0.0102846398949623,A
1526528411.33495,-0.14721273801153,1.24891485852952,-0.425358003041251,0.00497539667412639,0.00677787745371461,-0.0156372841447592,A
1526528411.35216,-0.147267974417378,1.24871720404315,-0.42504130802193,0.00270085828378797,0.0122695295140147,-0.00390347721986473,A
1526528411.35293,-0.148818591488994,1.24898033328708,-0.423294078056948,0.00314931129105389,0.0123527878895402,-0.00422272738069296,A
1526528411.36713,-0.149066939365656,1.24906284699962,-0.422716892708252,0.00948672834783792,0.00888461992144585,-0.00161098851822317,A
1526528411.38455,-0.151473909496134,1.24941233803991,-0.420103025334707,0.0101892286911607,0.00899507571011782,-0.00205271202139556,A
1526528411.38554,-0.154573800096769,1.2497435891269,-0.417049022551871,0.0111085893586278,0.00909965857863426,-0.00251252856105566,A
1526528411.39927,-0.15806150543574,1.25018005474428,-0.41400479463873,0.00627119885757565,0.00597192114219069,-0.00629724841564894,A
1526528411.41774,-0.159673068202128,1.25129805867064,-0.412719935757672,0.0107390908524394,-0.00727191241458058,0.00459860078990459,A
1526528411.42065,-0.163843501605752,1.25174715891827,-0.409281742428457,0.0119623309001327,-0.00713095022365451,0.00396694429218769,A
1526528411.43059,-0.16291554416184,1.25176539435096,-0.410504902179942,0.0264580976217985,-0.00547728128731251,-0.0094457920640707,A
1526528411.44614,-0.163346071370442,1.25144868765109,-0.410065799549729,0.0212844051420689,-0.0375438258051872,-0.0198826845735312,A
1526528411.44973,-0.168185968656089,1.25109220307649,-0.405271732575896,0.0228397008031607,-0.0376558043062687,-0.0197997447103262,A
1526528411.46253,-0.171877269632482,1.25064952145091,-0.401409112355067,0.0240549650043249,-0.0377950258553028,-0.019582025706768,A
1526528411.47833,-0.174411638853068,1.25027248160697,-0.398320322529243,0.0273593850433826,-0.075313039124012,-0.0371434912085533,A
1526528411.47958,-0.176329376367239,1.24980872528228,-0.395523124780834,0.0280315279960632,-0.0754592567682266,-0.036815632134676,A
1526528411.49442,-0.176694044319534,1.24969072778701,-0.393381946496615,0.0792661607265472,-0.117839634418488,-0.0973182618618011,A
1526528411.51028,-0.176850596015855,1.25007697683934,-0.390523874277712,0.129528030753136,-0.194591581821442,-0.140961691737175,A
1526528411.51097,-0.176260592786578,1.25089229626216,-0.387683123733879,0.129209220409393,-0.194334864616394,-0.141690880060196,A
1526528411.52552,-0.174525562120311,1.25249594005503,-0.384946569284307,0.183049291372299,-0.30120787024498,-0.178587168455124,A
1526528411.54148,-0.171039159695141,1.25490411145315,-0.383126513224737,0.181585013866425,-0.300456970930099,-0.180654317140579,A
1526528411.54232,-0.166964346667619,1.25805797793813,-0.3818787185269,0.179838687181473,-0.299481928348541,-0.18339903652668,A
1526528411.55749,-0.162468929441548,1.26223792792235,-0.380861454135237,0.270222514867783,-0.388429433107376,-0.2353785187006,A
1526528411.57326,-0.157879944802123,1.26783590543401,-0.379675308559065,0.320619732141495,-0.445429652929306,-0.3440200984478,A
1526528411.57395,-0.154056753928791,1.27512708293802,-0.377666004667695,0.318423867225647,-0.44327974319458,-0.350727409124374,A
1526528411.58913,-0.150254532043611,1.28437664134248,-0.375350643572501,0.290962785482407,-0.460721373558044,-0.444723606109619,A
1526528411.60532,-0.146241898759341,1.29575623366103,-0.372788362789885,0.246912196278572,-0.447711408138275,-0.530400991439819,A
1526528411.60598,-0.141587301081025,1.30967849667297,-0.370419529301966,0.243766695261002,-0.444023728370667,-0.54351019859314,A
1526528411.62126,-0.135797012036092,1.32672900865024,-0.368304161110443,0.240051195025444,-0.439762592315674,-0.559660851955414,A
1526528411.63682,-0.131001347530647,1.34690959892969,-0.364247841604236,0.244257673621178,-0.349451541900635,-0.524876475334167,A
1526528411.63796,-0.128786464202683,1.3692239298366,-0.356867011133264,0.240968883037567,-0.34474042057991,-0.546443045139313,A
1526528411.65349,-0.12788812372193,1.39232132044918,-0.347809740098605,0.211362719535828,-0.242385894060135,-0.329276621341705,A
1526528411.66866,-0.128752966409592,1.41564644781675,-0.336804387308335,0.196919277310371,-0.125430196523666,-0.209818512201309,A
1526528411.66943,-0.134478136637309,1.43895487512874,-0.320241360138981,0.194703489542007,-0.122097082436085,-0.232794687151909,A
1526528411.68607,-0.151397230015095,1.46197724804296,-0.291857867523893,0.187766388058662,0.0193535983562469,-0.179396271705627,A
1526528411.7005,-0.193070389251709,1.48436526525608,-0.238123931196047,0.187949880957603,0.0215357150882483,-0.202038839459419,A
1526528411.70125,-0.281851840433052,1.50612916177131,-0.136915980379151,0.189360380172729,0.0231783613562584,-0.224686175584793,A
1526528411.71736,-0.482239475903664,1.52633398393502,0.0750528396614873,0.0965257361531258,0.147800162434578,-0.17297774553299,A
1526528411.73261,-0.962137122233582,1.54105724771542,0.565167912890172,-0.034656710922718,0.286850303411484,-0.121044918894768,A
1526528411.73382,-1.73169246132768,1.54108087099347,1.34379937847774,-0.0297241751104593,0.286851018667221,-0.142806068062782,A
1526528411.75051,-2.21203336702903,1.52652932425679,1.83274516680869,-0.159819915890694,0.418621808290482,-0.104718379676342,A
1526528411.76473,-2.41321681724223,1.50595095498716,2.04239523475031,-0.361208021640778,0.492466151714325,0.0743385478854179,A
1526528411.76641,-2.50161579136819,1.48372081690459,2.13862722767893,-0.352408856153488,0.490779191255569,0.0529400520026684,A
1526528411.77992,-2.5445230414562,1.46156495019998,2.18819662404746,-0.343052476644516,0.488608062267303,0.0325425565242767,A
1526528411.79603,-2.5673329409619,1.44018494507132,2.21683637444775,-0.509497702121735,0.514767348766327,0.218485981225967,A
1526528411.79712,-2.57724347403427,1.42012022326198,2.23169687964116,-0.499959051609039,0.511954724788666,0.201004475355148,A
1526528411.81162,-2.58029032193413,1.40176926792381,2.23886501468633,-0.610728144645691,0.513947129249573,0.427305817604065,A
1526528411.82763,-2.58039642701233,1.38601128386035,2.24136101114498,-0.835687935352325,0.505299389362335,0.608377516269684,A
1526528411.82837,-2.58048448568825,1.37368512523759,2.24138216837721,-0.829261779785156,0.502960026264191,0.598122537136078,A
1526528411.8438,-2.58511714087183,1.36497801975881,2.24380813689391,-0.825525045394897,0.501217663288116,0.590397655963898,A
1526528411.85921,-2.5960987629157,1.35945903852638,2.25043277458441,-0.996114015579224,0.470076084136963,0.684475779533386,A
1526528411.86001,-2.61120582178016,1.3573452344891,2.2590942133235,-0.997790157794952,0.469630509614944,0.681069672107697,A
1526528411.87559,-2.62733453273488,1.35911953744396,2.26766305007357,-1.01735138893127,0.441104680299759,0.796369016170502,A
1526528411.89108,-2.64363091012526,1.36516035510197,2.27663325085251,-1.00578892230988,0.424961000680923,0.885869324207306,A
1526528411.89174,-2.65979191138796,1.37581549464616,2.28570971536758,-1.01353931427002,0.427081048488617,0.893570005893707,A
1526528411.907,-2.67533871825478,1.39099412964404,2.29377954997714,-0.96196436882019,0.360679626464844,0.911192238330841,A
1526528411.9233,-2.69101869361866,1.41037052970145,2.30003149322111,-0.972795069217682,0.363959908485413,0.927141904830933,A
1526528411.92399,-2.70549207890607,1.43367543101001,2.30222646744416,-0.984618723392487,0.367414176464081,0.94704008102417,A
1526528411.93887,-2.73089541017464,1.4607132253911,2.31327844193794,-0.914802134037018,0.258488595485687,0.818662643432617,A
1526528411.95466,-2.78837229060115,1.49084562331842,2.35471881405614,-0.759802639484406,0.14802023768425,0.513291358947754,A
1526528411.95532,-2.94711054446259,1.52295536254887,2.49626174995635,-0.778187692165375,0.150070443749428,0.541305184364319,A
1526528411.97063,2.59169215304894,1.55022669065101,-3.06006554704275,-0.405173420906067,0.079759769141674,0.146801203489304,A
1526528411.98711,1.18376308368231,1.536668001217,-1.67059472395927,0.102252282202244,0.131833463907242,-0.39425602555275,A
1526528411.98796,0.871169794574228,1.50288880913487,-1.37816828880139,0.0819351524114609,0.130110949277878,-0.363440781831741,A
1526528412.00366,0.767161918533536,1.4695593083797,-1.29588500334199,0.0637019649147987,0.127295672893524,-0.334380567073822,A
1526528412.01985,0.716775577604804,1.44057956732225,-1.26869464293707,0.584876000881195,0.195162311196327,-1.0421941280365,A
1526528412.02062,0.688619127556322,1.417731256537,-1.26482276181446,0.573292136192322,0.191936939954758,-1.02236664295197,A
1526528412.03399,0.675077530122465,1.40149338866913,-1.27476903553927,1.01585233211517,0.212844789028168,-1.47068130970001,A
1526528412.05202,0.673534328310527,1.39098125248772,-1.29232882777173,1.12559545040131,0.181844308972359,-1.37511658668518,A
1526528412.05413,0.680108054703837,1.38454941190531,-1.31169631280636,1.12070167064667,0.180673643946648,-1.37093567848206,A
1526528412.06661,0.691720865916446,1.38146248238069,-1.32968354067716,1.02786982059479,0.151487126946449,-1.06126153469086,A
1526528412.08484,0.705049023053152,1.38155554505188,-1.34452268315172,1.02600789070129,0.151504635810852,-1.06294405460358,A
1526528412.08608,0.716906138397366,1.38471881283085,-1.35475282022368,1.02635979652405,0.152094781398773,-1.06674230098724,A
1526528412.09753,0.7291850371909,1.39082592638221,-1.36321417245071,0.790803492069244,0.121834218502045,-0.755355954170227,A
1526528412.11865,0.744402099763742,1.39933560586661,-1.37320486264639,0.398680448532104,0.0844576805830002,-0.383297890424728,A
1526528412.1196,0.7621433231963,1.40851373261313,-1.3850470676011,0.402721583843231,0.0859821438789368,-0.391915261745453,A
1526528412.13002,0.78265750969648,1.41650557891982,-1.39895935911137,0.0377944856882095,0.0381085686385632,0.0154592357575893,A
1526528412.14535,0.803524367257453,1.42189719374964,-1.41187919584966,-0.0720693022012711,0.0485815964639187,0.205443188548088,A
1526528412.14625,0.820668585530961,1.42420761836131,-1.41825372739609,-0.0721471458673477,0.0489217080175877,0.202039495110512,A
1526528412.16095,0.835793355299263,1.42436486165393,-1.41917566051575,-0.0735255405306816,0.0489446632564068,0.200307607650757,A
0,0,0,0,0,0,0,0,0
1526528412.78312,-0.190544460291484,1.31439628983691,0.0505355683027197,-0.114323332905769,-0.172110363841057,-0.0603313446044922,A
1526528412.78379,-0.195841595577558,1.31194766999407,0.0583502207103498,-0.112544216215611,-0.17273423075676,-0.0582667104899883,A
1526528412.79662,-0.196555215434896,1.30850039600534,0.0568948214116795,-0.121129229664803,-0.40222954750061,0.0799589529633522,A
1526528412.81208,-0.190196432984499,1.30322944515385,0.0477855125092924,-0.228841260075569,-0.48866218328476,0.0776417255401611,A
1526528412.81266,-0.183870422128641,1.29706909034921,0.0387830256875643,-0.229399263858795,-0.490309178829193,0.0837887525558472,A
1526528412.82823,-0.177418121943275,1.29168215300136,0.0309209280209658,-0.239828735589981,-0.662021696567535,-0.112029701471329,A
1526528412.84387,-0.173308276206904,1.28806528546237,0.0258865324413567,-0.215625166893005,-0.812346935272217,-0.242381304502487,A
1526528412.84456,-0.172076707710344,1.2866572081633,0.0232722057519581,-0.215732142329216,-0.812740683555603,-0.240990325808525,A
1526528412.8599,-0.17223408823741,1.2875784013539,0.0220692563899434,-0.215840250253677,-0.812482893466949,-0.241869181394577,A
1526528412.87667,-0.172159759622268,1.29109468044742,0.021619527244064,-0.275750309228897,-0.889341294765472,-0.331405758857727,A
1526528412.87752,-0.171660434766614,1.29736742442069,0.0214877580687098,-0.276916891336441,-0.887628495693207,-0.337327837944031,A
1526528412.89278,-0.17175355108164,1.30633486472333,0.0211931185298303,-0.278278112411499,-0.924552381038666,-0.352350234985352,A
1526528412.90792,-0.173891189516759,1.31864797207741,0.021439592540187,-0.279787331819534,-0.921407103538513,-0.364171326160431,A
1526528412.90854,-0.179955834936237,1.33461909994772,0.0236722007342963,-0.281071722507477,-0.917546212673187,-0.379684627056122,A
1526528412.92386,-0.190819595499629,1.35362971378959,0.0293307943264151,-0.208508759737015,-0.810002446174622,-0.370432674884796,A
1526528412.93975,-0.206153451748272,1.37445297316012,0.0392465621211752,-0.223387897014618,-0.66128808259964,-0.222666546702385,A
1526528412.94043,-0.223857790872115,1.39570034672196,0.0524970750755033,-0.22464919090271,-0.657364785671234,-0.243763998150826,A
1526528412.95524,-0.241577611512838,1.41668900415984,0.0670384967862955,-0.189443707466125,-0.496332854032516,-0.153388455510139,A
1526528412.97321,-0.259889806885596,1.43716898915677,0.0834084888511952,-0.191929116845131,-0.493396669626236,-0.173673272132874,A
1526528412.9743,-0.277215807499103,1.45687412482378,0.1004100823292,-0.195055067539215,-0.490963935852051,-0.1930932700634,A
1526528412.98796,-0.292932418929887,1.47589451242307,0.117241063622161,-0.168056488037109,-0.329985022544861,-0.137365594506264,A
1526528413.00394,-0.309996409105916,1.49507475070338,0.135926026529866,-0.0607851110398769,-0.146755889058113,-0.185418158769608,A
1526528413.00549,-0.341701373548967,1.51487401863896,0.168756861365781,-0.0651330277323723,-0.145453631877899,-0.204799801111221,A
1526528413.02153,-0.425662149087804,1.53468639875838,0.251452133213025,0.069854311645031,0.0152782835066319,-0.149065271019936,A
1526528413.035,-0.719333415507665,1.55327935722401,0.541017392738176,0.101842567324638,0.203993916511536,-0.140983164310455,A
1526528413.03584,-2.23461825231208,1.56011217576866,2.05077333308156,0.0987166538834572,0.204090267419815,-0.16074226796627,A
1526528413.0545,-2.9118220338838,1.54389115045213,2.72261432689168,0.0964285433292389,0.203785419464111,-0.180354461073875,A
1526528413.06634,-3.04361110985998,1.52622880975397,2.85057239614789,0.103754118084908,0.350966274738312,-0.113964930176735,A
1526528413.0672,-3.10484297005585,1.50984659082074,2.91011335730836,0.101633742451668,0.350102365016937,-0.130496740341187,A
1526528413.08378,3.14019251883137,1.49414833441508,2.947281409935,0.0538631230592728,0.445702910423279,-0.153446674346924,A
1526528413.09869,3.11451422758018,1.4790535274895,2.97206734380303,0.0366583317518234,0.52794486284256,-0.165524661540985,A
1526528413.09945,3.09553621821341,1.46388506919679,2.98962154256943,0.0342259556055069,0.526440680027008,-0.180538639426231,A
1526528413.11677,3.08186198471573,1.44837439495908,3.00062812544391,0.0166818015277386,0.571678400039673,-0.146648347377777,A
1526528413.13047,3.07145708281596,1.43289464990946,3.00733461536164,0.0143382726237178,0.569669246673584,-0.161876812577248,A
1526528413.13121,3.06232353887804,1.41783600840602,3.01170302865463,0.0119063993915915,0.567486941814423,-0.17663586139679,A
1526528413.15589,3.05495399922699,1.40393859175394,3.01349491909651,-0.0121130459010601,0.646237254142761,-0.0687208846211433,A
1526528413.16196,3.04989653560451,1.39205464601939,3.01230497794479,0.0332195647060871,0.691709816455841,0.0808900520205498,A
1526528413.16394,3.04627319403444,1.38278500026238,3.00916926057344,0.0317107327282429,0.690019488334656,0.0718773826956749,A
1526528413.17841,3.04411939671088,1.37586998090278,3.00440143543649,-0.00523928971961141,0.710126876831055,0.0709580555558205,A
1526528413.19373,3.04311864416573,1.37114554559073,2.9991872563813,-0.0859505385160446,0.720477104187012,0.0213990230113268,A
1526528413.19448,3.04169118634217,1.36817526093698,2.99552236771994,-0.0865225195884705,0.719883680343628,0.0185311641544104,A
1526528413.20977,3.03683468079724,1.36628793222446,2.99590456346387,-0.0876879915595055,0.719502151012421,0.0167927723377943,A
1526528413.22568,3.02738047580963,1.36515942610087,3.00114394192445,-0.173783093690872,0.741397559642792,0.00946569442749023,A
1526528413.22654,3.01345318176366,1.36477254139761,3.01052707203076,-0.176654428243637,0.741318464279175,0.00943383853882551,A
1526528413.24199,2.99804506195081,1.36499515832685,3.02051607827937,-0.105130739510059,0.804535388946533,0.037862628698349,A
1526528413.2574,2.98336256146127,1.36579842435209,3.0295322608446,-0.0267047937959433,0.878124535083771,0.0796938315033913,A
1526528413.25875,2.97071870912922,1.36768964419568,3.03624295960184,-0.0289289373904467,0.878507733345032,0.0819404646754265,A
1526528413.27415,2.9612126176745,1.37087599712863,3.03934427577578,0.0124067114666104,0.913737177848816,0.122990153729916,A
1526528413.2893,2.95539436632388,1.37568901464784,3.03833332105839,0.0121442954987288,0.914681673049927,0.127838611602783,A
1526528413.29017,2.95220614654626,1.38218263126129,3.03382240611562,0.0127370888367295,0.915919899940491,0.134214490652084,A
1526528413.30547,2.95326278873684,1.39002213757285,3.02375202287148,0.0220343321561813,0.899384737014771,0.125511839985847,A
1526528413.32088,2.95717182154386,1.39891461416631,3.00956647556236,-0.0436475463211536,0.848225474357605,0.112655930221081,A
1526528413.32142,2.96251707784357,1.40899065451171,2.9920521784076,-0.0409785583615303,0.849898815155029,0.122267879545689,A
1526528413.33678,2.96682133196566,1.42001427651217,2.97372355879089,-0.0903129205107689,0.768240690231323,0.093074232339859,A
1526528413.35371,2.97235906351895,1.43215799645073,2.95307342505221,-0.0874694287776947,0.769991874694824,0.104776903986931,A
1526528413.35424,2.97951811717595,1.44549637408812,2.93045495966681,-0.0843600034713745,0.77174699306488,0.117662779986858,A
1526528413.36863,2.99187438855858,1.45967126765227,2.90268761493771,-0.0420387089252472,0.646313011646271,0.0971922352910042,A
1526528413.3854,3.01912446070392,1.47488518466198,2.86092875425517,0.0517625361680984,0.494961559772491,0.0785065665841103,A
1526528413.38637,3.0663962835727,1.49131758182781,2.8000802025807,0.0574967041611671,0.496400713920593,0.0943827331066132,A
1526528413.40132,-3.13818677646905,1.50896988734864,2.70820147289268,0.0183226205408573,0.312878161668777,0.0328635685145855,A
1526528413.41712,-2.99584044019753,1.52620349552467,2.55311252959979,-0.000300532556138933,0.0868660137057304,-0.137168750166893,A
1526528413.41877,-2.70466018980898,1.54068808905694,2.24900409196188,0.00596383819356561,0.0874068886041641,-0.120338924229145,A
1526528413.43265,-2.10236877990456,1.54830835138707,1.63247308692175,0.0126083474606276,0.0876072645187378,-0.104461312294006,A
1526528413.45003,-1.41138235016745,1.54386053398433,0.925960556189646,0.0512797646224499,-0.129955649375916,-0.117627203464508,A
1526528413.45081,-1.03701601356469,1.53133432870411,0.536990230526279,0.0586523376405239,-0.130371421575546,-0.101829752326012,A
1526528413.46373,-0.837200297997948,1.51617473927959,0.325535371775369,0.0148553866893053,-0.32224640250206,-0.183447793126106,A
1526528413.47971,-0.698876422578724,1.49974919074625,0.1788128206308,0.0900428518652916,-0.559422791004181,-0.270254731178284,A
1526528413.48329,-0.596822605571364,1.48266122009823,0.0713959175000249,0.0938419029116631,-0.560781419277191,-0.251795768737793,A
1526528413.49522,-0.526184908296122,1.46580207871099,-0.00343014485626406,0.196693494915962,-0.763716042041779,-0.418164163827896,A
1526528413.51128,-0.485644077115501,1.45036632999789,-0.0485380134732241,0.20013652741909,-0.765452146530151,-0.402541100978851,A
1526528413.5122,-0.472938552487092,1.43718045298079,-0.0663969906850838,0.204739883542061,-0.767122566699982,-0.390193343162537,A
1526528413.52743,-0.480093315931041,1.42661932710946,-0.0655995003934629,0.266463160514832,-0.912459850311279,-0.50731486082077,A
1526528413.54509,-0.49822769162407,1.41835457617974,-0.0542112638008777,0.18932569026947,-1.02856457233429,-0.420334696769714,A
1526528413.54576,-0.518196261509326,1.41209997811142,-0.0402547403204665,0.195035263895988,-1.02953362464905,-0.416442394256592,A
1526528413.55887,-0.530261288079291,1.40704414326118,-0.0323673898214421,0.199209719896317,-1.03034520149231,-0.413091778755188,A
1526528413.57509,-0.534039289067021,1.40296145964157,-0.0302021886079941,0.0724871158599854,-1.03640532493591,-0.357463270425797,A
1526528413.5757,-0.529565516452424,1.40066935536771,-0.0335610904863591,0.0729843750596046,-1.03679084777832,-0.355134338140488,A
1526528413.59083,-0.514317868838034,1.40025839036692,-0.0459418075013363,0.0381546914577484,-0.995234549045563,-0.351770430803299,A
1526528413.6066,-0.491536476376866,1.401086537798,-0.0649811638733137,0.194416165351868,-0.840431213378906,-0.41329437494278,A
1526528413.60712,-0.465565624248627,1.40301671407682,-0.0860395562419508,0.189668446779251,-0.840107083320618,-0.412974774837494,A
1526528413.6227,-0.436644793436333,1.40645413901735,-0.108102414391405,0.18388843536377,-0.839538872241974,-0.413941383361816,A
1526528413.63842,-0.406178320374944,1.41166098788568,-0.13040376263142,0.284090906381607,-0.696702122688293,-0.510464906692505,A
1526528413.63905,-0.38283659130211,1.41941555006104,-0.1442015968571,0.277814358472824,-0.695502996444702,-0.516149938106537,A
1526528413.65465,-0.376503577009734,1.43061169256268,-0.13988368387283,0.474331587553024,-0.566175758838654,-0.657185673713684,A
1526528413.67026,-0.388752617463777,1.44490660984632,-0.116367478238115,0.459089607000351,-0.456461012363434,-0.546119034290314,A
1526528413.67086,-0.417743404108721,1.46124472057179,-0.0753034195384615,0.455855160951614,-0.454542130231857,-0.562376976013184,A
1526528413.68666,-0.464042663990288,1.47888651710788,-0.0155986365299792,0.331681549549103,-0.32657790184021,-0.388536840677261,A
1526528413.70284,-0.527451666195547,1.49646090627462,0.0626789153663611,0.327984660863876,-0.325118780136108,-0.406438022851944,A
1526528413.70338,-0.617337101887594,1.51319328541963,0.168837174548033,0.323929637670517,-0.324015766382217,-0.423666715621948,A
1526528413.71911,-0.775827513376374,1.52910453427405,0.344126999078039,0.251417607069016,-0.19239729642868,-0.30638313293457,A
1526528413.73421,-1.14220294337688,1.54230579572065,0.727407594102583,0.242859557271004,-0.016915837302804,-0.314897626638412,A
1526528413.73475,-1.85326005029963,1.54521881457116,1.45593678320843,0.241510704159737,-0.0168370958417654,-0.333864688873291,A
1526528413.75492,-2.39542705614362,1.53341600335402,2.01529466684079,0.126000627875328,0.127978801727295,-0.190390482544899,A
1526528413.76606,-2.61667183812055,1.51514359661564,2.25253228901644,-0.138612985610962,0.279442399740219,-0.00396079756319523,A
1526528413.76832,-2.71415313589453,1.49513234665763,2.36466854240412,-0.135152667760849,0.278129458427429,-0.024616627022624,A
1526528413.78503,-2.76311788850141,1.47447016483292,2.4277888535149,-0.130950793623924,0.276354819536209,-0.0451965406537056,A
1526528413.79726,-2.78556983674532,1.4535275659828,2.46402463360984,-0.460440397262573,0.360060006380081,0.192689761519432,A
1526528413.79803,-2.79450958898889,1.43298689546774,2.48466579194747,-0.454492211341858,0.357447385787964,0.173170998692513,A
1526528413.81313,-2.79799710215736,1.41309800802639,2.49618638903712,-0.752759397029877,0.366497606039047,0.421408772468567,A
1526528413.82901,-2.80134736661829,1.39376374977616,2.50481342370593,-1.08347153663635,0.330668836832047,0.713838815689087,A
1526528413.82959,-2.80546351389913,1.37564232911369,2.51255122257018,-1.07828152179718,0.327316045761108,0.69678658246994,A
1526528413.84546,-2.80972016443016,1.35976267627071,2.51673790104439,-1.21161293983459,0.245957612991333,0.997500658035278,A
1526528413.86123,-2.81497589208254,1.34776164088104,2.51771045920415,-1.20889472961426,0.243373394012451,0.986044824123383,A
1526528413.86263,-2.82827080459943,1.3410115639055,2.52519261727519,-1.20965874195099,0.241858139634132,0.978862345218658,A
1526528413.87699,-2.85246336613576,1.34019105411602,2.5426749107781,-1.51422297954559,0.330248206853867,1.14761960506439,A
1526528413.89322,-2.88857810599561,1.34643585035309,2.57241710887714,-1.52470576763153,0.474631398916245,1.21367764472961,A
1526528413.89411,-2.93760925137616,1.36099654174047,2.61519233190577,-1.53821015357971,0.477767467498779,1.22513091564178,A
1526528413.90959,-3.00218902625188,1.3815165451173,2.67449612953607,-1.24581325054169,0.546745717525482,0.975371062755585,A
1526528413.92486,-3.08937946668695,1.40496540993232,2.75605965598369,-0.842459201812744,0.571990132331848,0.576821744441986,A
1526528413.9254,3.07555891996989,1.4291215946507,2.86608821645981,-0.860391497612,0.575689554214478,0.600775182247162,A
1526528413.94025,2.91322848923149,1.45083136510959,3.0159750382765,-0.878167331218719,0.578521430492401,0.625098347663879,A
1526528413.95619,2.7100197372153,1.46699704390493,-3.08182702130973,-0.421164184808731,0.56332802772522,0.0996740162372589,A
1526528413.95673,2.48767753738547,1.4770981302655,-2.88187006358543,-0.434735983610153,0.564323842525482,0.119526356458664,A
1526528413.97334,2.25899779806637,1.48226369572699,-2.67893728526595,-0.104913480579853,0.443822205066681,-0.148641511797905,A
1526528413.98823,2.0275391720624,1.48338382936193,-2.47632107884273,0.154405266046524,0.282482624053955,-0.382816791534424,A
1526528413.98908,1.80316347085012,1.48087782586048,-2.28253113461681,0.145373582839966,0.282260715961456,-0.364993274211884,A
1526528414.00411,1.60218271206119,1.47534503668209,-2.11264552434362,0.442872226238251,0.189356669783592,-0.717865109443665,A
1526528414.02018,1.42860199748738,1.4677353876454,-1.96891476034961,0.436291426420212,0.188602611422539,-0.700294733047485,A
1526528414.02088,1.28102794164425,1.45828412253538,-1.84761300688356,0.430537462234497,0.187585860490799,-0.682793915271759,A
1526528414.0358,1.16492099327961,1.44677535893598,-1.75211450631718,0.572030901908875,0.0971013531088829,-0.926760256290436,A
1526528414.05327,1.07847796437472,1.43367692737728,-1.68028315696525,0.719676971435547,0.0589884892106056,-1.04969429969788,A
1526528414.05382,1.01794409191311,1.42044353863908,-1.62833517763098,0.712660431861877,0.0570929311215878,-1.0356479883194,A
1526528414.06937,0.97865886518909,1.40876483824902,-1.59235195551255,0.863410651683807,0.0853207856416702,-1.01759517192841,A
1526528414.08734,0.952085483276736,1.39922418117475,-1.56514013029282,0.778001189231873,0.0689815133810043,-0.839088499546051,A
1526528414.08821,0.935460698333376,1.39208456428992,-1.54453435286126,0.774007976055145,0.067737452685833,-0.832617878913879,A
1526528414.10048,0.927594575949094,1.38703980796927,-1.53065877850831,0.770871639251709,0.0668281614780426,-0.828519642353058,A
1526528414.11884,0.925752794749311,1.38351335341565,-1.52139804563383,0.582345306873322,0.0589145012199879,-0.622660219669342,A
1526528414.11941,0.931995349905899,1.38198425550793,-1.51764777836977,0.580443441867828,0.058628648519516,-0.622695565223694,A
1526528414.13279,0.947481067707279,1.38199819852778,-1.52054454688372,0.513523697853088,0.0990365371108055,-0.437824934720993,A
0,0,0,0,0,0,0,0,0
1526528414.59327,-0.107529486860803,1.3842286006932,0.0106672637730232,-0.0762844681739807,-0.00180462887510657,0.0541364178061485,A
1526528414.59394,-0.111382235635329,1.38012171836852,0.0207612103652045,-0.0751257166266441,-0.00257468805648386,0.0580673925578594,A
1526528414.60806,-0.122322625806221,1.37634139602513,0.0349290345937639,0.0205869935452938,-0.0688804313540459,0.114486895501614,A
1526528414.62349,-0.141657518011003,1.3723563917506,0.0526192106429043,-0.0360249578952789,-0.0887469947338104,0.229024693369865,A
1526528414.62401,-0.162465406212244,1.36749263000497,0.0694178250498613,-0.0311993919312954,-0.0897174254059792,0.233106538653374,A
1526528414.64033,-0.184375525502788,1.36068462757933,0.0856428222206091,-0.0256204921752214,-0.0911146923899651,0.23889334499836,A
1526528414.65562,-0.206432421766765,1.35161554612465,0.102199347385975,-0.0468031205236912,-0.185041651129723,0.182143524289131,A
1526528414.65616,-0.226950288026659,1.34169282962491,0.118710391475646,-0.0402695015072823,-0.187247171998024,0.190610766410828,A
1526528414.67318,-0.245682861930653,1.33243255186069,0.135135147529321,-0.128226578235626,-0.368591159582138,-0.0246239956468344,A
1526528414.68883,-0.260885853042966,1.32433028791102,0.149777682992237,-0.22225584089756,-0.556998491287231,-0.0710096284747124,A
1526528414.68954,-0.272566587308339,1.31714025461851,0.162349086877735,-0.217631414532661,-0.558777749538422,-0.0650515556335449,A
1526528414.70414,-0.28090266731086,1.31053382250535,0.1723143927696,-0.213847786188126,-0.560456693172455,-0.0594840161502361,A
1526528414.72026,-0.286619495226531,1.3050924793444,0.179300244635647,-0.3460513651371,-0.823467910289764,-0.0818487778306007,A
1526528414.72185,-0.291820397446239,1.30204216846701,0.184201294899534,-0.343895971775055,-0.824273407459259,-0.0794206187129021,A
1526528414.73486,-0.300206743405851,1.30234337309928,0.190003061903021,-0.42218941450119,-1.04416418075562,-0.214258760213852,A
1526528414.75373,-0.314218535413989,1.30605235216415,0.199310994036992,-0.38700744509697,-1.11020362377167,-0.306553930044174,A
1526528414.75444,-0.334505391652948,1.31352275920077,0.213088791781926,-0.384345501661301,-1.10827589035034,-0.315063029527664,A
1526528414.76617,-0.359038470363987,1.32484320102944,0.229919041476512,-0.490054398775101,-1.10100185871124,-0.326167583465576,A
1526528414.7857,-0.384724230914796,1.33955691332971,0.24752905509069,-0.489593684673309,-1.09752452373505,-0.341691702604294,A
1526528414.78716,-0.408578209857367,1.35695922336428,0.263842683587649,-0.491294741630554,-1.09368371963501,-0.359379589557648,A
1526528414.79946,-0.425879321816347,1.37643426168826,0.274401819064302,-0.573743343353271,-0.959716379642487,-0.234466090798378,A
1526528414.8174,-0.434816356946881,1.39766350132511,0.277229991229683,-0.506152749061584,-0.759609520435333,-0.150752484798431,A
1526528414.81795,-0.436560711124347,1.42002927703389,0.273484403505114,-0.515213191509247,-0.756003260612488,-0.170881792902946,A
1526528414.83212,-0.434134307416202,1.44316681603725,0.265305569257149,-0.311314344406128,-0.550171554088593,-0.139101833105087,A
1526528414.84635,-0.434782993083349,1.4669655589439,0.259633456572096,-0.102675400674343,-0.330870807170868,-0.110557936131954,A
1526528414.84972,-0.44766775191574,1.49078723432094,0.265883055262992,-0.11173564940691,-0.328684240579605,-0.132511332631111,A
1526528414.86416,-0.478473349356581,1.5137236846847,0.289362662896878,-0.120068408548832,-0.327113419771194,-0.153923511505127,A
1526528414.87825,-0.546253890536311,1.53593867947157,0.350294456340158,-0.080421470105648,-0.156689614057541,-0.157797276973724,A
1526528414.87917,-0.810846272728298,1.55772405780819,0.609729013273831,-0.0890505686402321,-0.156167596578598,-0.178571254014969,A
1526528414.89427,-3.09827631754502,1.55865795548056,2.8940230553102,-0.0687492862343788,-0.00672650104388595,-0.27004599571228,A
1526528414.91003,2.91762635187559,1.53679131362928,-3.12382441548446,0.0887624695897102,0.128419682383537,-0.188743188977242,A
1526528414.91103,2.87873763162029,1.51577409677707,-3.08616003808707,0.0820237919688225,0.127484455704689,-0.208699390292168,A
1526528414.92736,2.87244272648637,1.49628662092141,-3.08043489073267,0.163142919540405,0.247744232416153,-0.159559786319733,A
1526528414.94289,2.88039353206529,1.47784684865074,-3.08812346948549,0.158968970179558,0.246202111244202,-0.177466556429863,A
1526528414.94387,2.89172335859857,1.46012626442273,-3.09959792885948,0.155627250671387,0.24440111219883,-0.19481348991394,A
1526528414.95706,2.9055117112077,1.44358061183002,-3.11478725585634,0.185992911458015,0.365255773067474,-0.168595969676971,A
1526528414.97372,2.92037898627462,1.4284449650181,-3.13206149564918,0.161727353930473,0.539964497089386,-0.134812876582146,A
1526528414.97461,2.93316283849095,1.41469461922241,3.13529253805525,0.160685673356056,0.53792017698288,-0.148502632975578,A
1526528414.98958,2.93986111209414,1.40165621170952,3.12482748403069,0.0124445157125592,0.580822646617889,-0.167179450392723,A
1526528415.00576,2.94006635569409,1.38849672142352,3.11991868943033,-0.00854774005711079,0.671509206295013,-0.173014461994171,A
1526528415.00661,2.93583987614461,1.37537739449985,3.1185770295851,-0.0119307860732079,0.669046223163605,-0.185473665595055,A
1526528415.02106,2.93104014257188,1.36262599634574,3.11675042727556,-0.0154536180198193,0.666490495204926,-0.197497740387917,A
1526528415.0374,2.92754839850304,1.34993280185455,3.11252584931592,0.0127159543335438,0.757324874401093,-0.221061512827873,A
1526528415.03861,2.92554878113971,1.33833702121448,3.10713329637403,0.00986582227051258,0.754719018936157,-0.23200449347496,A
1526528415.05317,2.92567149537415,1.32847457939762,3.10113331326292,0.0290494188666344,0.76169228553772,-0.144739866256714,A
1526528415.06881,2.92670744272377,1.32006823083025,3.09587623946287,-0.0524326451122761,0.761853396892548,-0.140565901994705,A
1526528415.06969,2.92689648188641,1.31296687682698,3.09267136163838,-0.0538511164486408,0.760067045688629,-0.147291094064713,A
1526528415.08488,2.92674099960606,1.3071603483622,3.09058287554731,-0.106843784451485,0.78069543838501,-0.102577768266201,A
1526528415.10047,2.9258956965855,1.30209632998822,3.08854419863023,-0.108104653656483,0.779363393783569,-0.107303187251091,A
1526528415.10162,2.92256467090851,1.29765900022241,3.08714071003823,-0.109897144138813,0.778175890445709,-0.11128581315279,A
1526528415.1193,2.91761663890672,1.29418920740075,3.08538662952196,-0.135836288332939,0.751919806003571,-0.0287231802940369,A
1526528415.1324,2.91287621227721,1.29230677556337,3.0827567140562,-0.0859488546848297,0.751953303813934,0.0495770499110222,A
1526528415.13307,2.9088092858741,1.29238114010671,3.07983972926487,-0.0870207399129868,0.751973748207092,0.0499023199081421,A
1526528415.15268,2.90577868817542,1.29439124976809,3.07689745253387,-0.0741651058197021,0.763312220573425,0.0859720259904861,A
1526528415.16373,2.902110078386,1.29848801667043,3.07556844305053,-0.106261432170868,0.785250425338745,0.10273402929306,A
1526528415.16447,2.89580335526373,1.30452406753951,3.07760134351409,-0.106492199003696,0.786856293678284,0.108785197138786,A
1526528415.18384,2.88604385759677,1.3124107674314,3.08357630643604,-0.107054650783539,0.788901567459106,0.116791717708111,A
1526528415.19598,2.87307585620372,1.32176551658775,3.0920294330848,-0.0697362720966339,0.827351808547974,0.0588912181556225,A
1526528415.19741,2.85836313616459,1.3324721899056,3.10061812751155,-0.0703216418623924,0.829935014247894,0.0698552802205086,A
1526528415.21187,2.8450080063516,1.34421693594835,3.10600008433367,0.00446016481146216,0.821761071681976,-0.010598792694509,A
1526528415.22807,2.83566744626104,1.35614127904086,3.10551858181552,0.0280248187482357,0.735884785652161,0.00703924428671598,A
1526528415.22915,2.82987467159048,1.36870289138217,3.10012414445015,0.0306184850633144,0.738483369350433,0.0191118121147156,A
1526528415.24385,2.82518493341691,1.3824598274761,3.09311253751848,0.0198995731770992,0.640367567539215,0.10746930539608,A
1526528415.26059,2.81867929673298,1.39739072094671,3.08756056484434,0.0234039556235075,0.643053412437439,0.121780142188072,A
1526528415.26178,2.80929923505199,1.41435739770556,3.08404244126524,0.0273311845958233,0.645838916301727,0.138121634721756,A
1526528415.27609,2.79737179062025,1.43441887719477,3.08086093599451,0.0422243848443031,0.598991394042969,0.223842114210129,A
1526528415.29132,2.79299671414007,1.45678857617367,3.06830512748673,0.051672101020813,0.471581280231476,0.0529324896633625,A
1526528415.29219,2.80193903966274,1.47970197747241,3.04116517256615,0.0602233111858368,0.473926901817322,0.0740796700119972,A
1526528415.30695,2.82735871813246,1.50286137089054,2.99602141842254,-0.0624246038496494,0.26391339302063,0.0186474472284317,A
1526528415.32312,2.87905296443128,1.52628994555721,2.92415299782406,-0.0529899783432484,0.265229851007462,0.0402390398085117,A
1526528415.32386,3.00738762086092,1.54907984566018,2.77716147847212,-0.0443483628332615,0.265984296798706,0.0616866610944271,A
1526528415.33913,-1.59177237087774,1.56587923565793,1.07736841142123,-0.139340609312057,0.132602050900459,-0.0560265965759754,A
1526528415.35497,-0.465185764235311,1.54602896033493,-0.061879055427284,-0.161131978034973,-0.0480972230434418,-0.0465465299785137,A
1526528415.35594,-0.32365222920998,1.52253571428259,-0.214300614740121,-0.156898781657219,-0.0489548444747925,-0.0229426361620426,A
1526528415.37071,-0.257032145049788,1.49858548833635,-0.290595081984951,-0.0123293027281761,-0.217144638299942,-0.123123668134212,A
1526528415.38721,-0.216970096178946,1.47479470846281,-0.339465668781873,0.0939989611506462,-0.348339349031448,-0.193563565611839,A
1526528415.38823,-0.192592321161297,1.4514242056714,-0.372296408694236,0.0961583256721497,-0.350851148366928,-0.170283377170563,A
1526528415.40343,-0.177424255231754,1.42790709423474,-0.395730349563396,0.0984977409243584,-0.353926062583923,-0.147002428770065,A
1526528415.4193,-0.164676147933612,1.40449475398652,-0.416181048023609,0.0972661972045898,-0.513735234737396,-0.172305181622505,A
1526528415.4205,-0.149286668504437,1.38024132338346,-0.43837996542714,0.0982999578118324,-0.518039703369141,-0.148304581642151,A
1526528415.4349,-0.13365673154814,1.35484545592251,-0.459379498697974,0.111684158444405,-0.642260730266571,-0.176138803362846,A
1526528415.45076,-0.117962921688592,1.33071634507822,-0.478950482766246,0.0948482677340508,-0.744714975357056,-0.461915969848633,A
1526528415.45233,-0.103372749271042,1.31062744752172,-0.497034228686666,0.0934086740016937,-0.749687373638153,-0.442173302173615,A
1526528415.4661,-0.0926805992617702,1.29414600915857,-0.51126269020078,0.111307129263878,-0.792769730091095,-0.440378665924072,A
1526528415.48483,-0.0851324903204641,1.2801486078219,-0.521791663858841,0.11039625108242,-0.796687006950378,-0.426806330680847,A
1526528415.48558,-0.0782200323687138,1.2682839390015,-0.531069542698353,0.109308563172817,-0.800154447555542,-0.415332794189453,A
1526528415.49807,-0.0719378840563585,1.25844984162017,-0.539347576728806,0.128166005015373,-0.78291243314743,-0.330312669277191,A
1526528415.51705,-0.0687716583029751,1.25004928233048,-0.544387651579451,0.206494644284248,-0.726323306560516,-0.274596244096756,A
1526528415.51791,-0.0691333097821394,1.24318092900968,-0.545784703562999,0.207058131694794,-0.728511095046997,-0.268109083175659,A
1526528415.52897,-0.0723785607914421,1.23785242846343,-0.544019667140946,0.175535842776299,-0.664168655872345,-0.283449798822403,A
1526528415.54477,-0.0774221197250277,1.23392591701857,-0.540086684748331,0.095404639840126,-0.599937975406647,-0.298934131860733,A
1526528415.54535,-0.0835198408962417,1.23156792496068,-0.534845319032688,0.0975992009043694,-0.6007199883461,-0.296879351139069,A
1526528415.56119,-0.0901537847121888,1.23106469346436,-0.528638090186081,0.0998411104083061,-0.600887537002563,-0.296598225831985,A
1526528415.57655,-0.0960818367178022,1.23245390768215,-0.522243573699453,0.0537239201366901,-0.515510380268097,-0.302160084247589,A
1526528415.57709,-0.102028751868866,1.2355134873908,-0.515106347362089,0.0553940497338772,-0.514499247074127,-0.305227965116501,A
1526528415.59236,-0.107632684014667,1.24000169627538,-0.507551026001895,0.051004346460104,-0.422989875078201,-0.280386835336685,A
1526528415.60834,-0.11391716645919,1.24576148843538,-0.498548128409806,0.0569297671318054,-0.342201083898544,-0.228519648313522,A
1526528415.60888,-0.119916119607047,1.2525224346775,-0.489436580572953,0.0580650791525841,-0.340063720941544,-0.235111251473427,A
1526528415.62611,-0.125077598578908,1.25988281881791,-0.480834925878542,0.0406828038394451,-0.292253971099854,-0.148136854171753,A
1526528415.64095,-0.127700435278749,1.26772718948194,-0.474348947519829,0.0405265055596828,-0.289883464574814,-0.155654713511467,A
1526528415.64218,-0.128109563864056,1.27561278945517,-0.469805624529261,0.0396848917007446,-0.2875597178936,-0.163143962621689,A
1526528415.65746,-0.127717658327647,1.28364021303706,-0.465271135756357,0.130480825901031,-0.216590702533722,-0.150492638349533,A
1526528415.6731,-0.126447885927855,1.29201499303589,-0.460414907268882,0.214238718152046,-0.197894990444183,-0.212532207369804,A
1526528415.67412,-0.123697067350153,1.30094755076571,-0.455648186409055,0.212426751852036,-0.195475280284882,-0.220970630645752,A
1526528415.68804,-0.120403965164277,1.31077833811439,-0.450326397763803,0.275006234645844,-0.186339870095253,-0.269757300615311,A
1526528415.70412,-0.117110934857158,1.32144396043417,-0.443984833713974,0.317240566015244,-0.188077822327614,-0.295960068702698,A
1526528415.70499,-0.113277137420042,1.3330619011795,-0.437450394782806,0.31502628326416,-0.185276255011559,-0.307054102420807,A
1526528415.72073,-0.108106478248939,1.34598857262135,-0.431604217857792,0.312458455562592,-0.182313293218613,-0.319428533315659,A
1526528415.73865,-0.101185961857758,1.35965982300645,-0.426814902088581,0.335729449987411,-0.169041961431503,-0.30634742975235,A
1526528415.73923,-0.0929948852703942,1.37347227788288,-0.422399616934067,0.332764953374863,-0.166240632534027,-0.319647878408432,A
1526528415.75308,-0.0835027321287699,1.38736263589248,-0.41788537815678,0.356491833925247,-0.129401966929436,-0.310034871101379,A
1526528415.76752,-0.0725470813106298,1.40157462251374,-0.413322856777838,0.306045830249786,-0.0744187459349632,-0.312069267034531,A
1526528415.76855,-0.0601584000922916,1.41610852049933,-0.409223693576497,0.303101629018784,-0.0720752105116844,-0.326248586177826,A
1526528415.78469,-0.0486556487597309,1.43096400368724,-0.403784292429641,0.25420007109642,-0.00123095652088523,-0.324578762054443,A
1526528415.8,-0.0401180139842629,1.44656282906675,-0.395103328324526,0.252391129732132,0.000822602305561304,-0.33997642993927,A
1526528415.80095,-0.0378316413537466,1.46264515658347,-0.380384301323913,0.251503854990005,0.00268702348694205,-0.355927675962448,A
1526528415.81806,-0.0443944730719751,1.47902740019874,-0.356783347432526,0.191292315721512,0.083972729742527,-0.308627128601074,A
1526528415.83083,-0.0637028390492085,1.49587056334444,-0.320351462542981,0.0709731802344322,0.12738236784935,-0.259814590215683,A
1526528415.83194,-0.0996025705703656,1.51310446399792,-0.26733625664249,0.071941465139389,0.128524273633957,-0.277144342660904,A
1526528415.85101,-0.172656628413714,1.53068970093021,-0.177034676677874,-0.0232323743402958,0.203663617372513,-0.224187403917313,A
1526528415.86327,-0.384356368348631,1.54796496715127,0.0527943869445313,-0.120056174695492,0.298186033964157,-0.083999827504158,A
1526528415.86396,-1.30290504067747,1.55939981115933,0.990456133168341,-0.117626555263996,0.298381716012955,-0.102146998047829,A
1526528415.87919,-2.35681255711739,1.5505607088243,2.06419281406855,-0.114317409694195,0.298241913318634,-0.119480177760124,A
1526528415.89436,-2.59799634726953,1.53513014579989,2.32550570203845,-0.235936015844345,0.336018681526184,0.0471028834581375,A
1526528415.89518,-2.67040442490415,1.51982407809184,2.41700833800603,-0.231250673532486,0.335355848073959,0.0322233475744724,A
1526528415.9115,-2.69161755306785,1.50554470999369,2.45589206391774,-0.351476430892944,0.372765064239502,0.183533892035484,A
1526528415.9263,-2.68801288835969,1.49291422224297,2.46792969641481,-0.516017496585846,0.38326022028923,0.305445224046707,A
1526528415.92742,-2.67182082698445,1.48207137926444,2.4653473857398,-0.509998261928558,0.382358014583588,0.296371698379517,A
1526528415.9424,-2.65365396983401,1.47250800963876,2.45912549098733,-0.504105865955353,0.38146510720253,0.28870302438736,A
1526528415.95796,-2.64201641681013,1.46366962050636,2.45797319626756,-0.667971193790436,0.348973244428635,0.300112158060074,A
1526528415.95871,-2.6377303571991,1.45617294904941,2.4626932989285,-0.663972139358521,0.348143726587296,0.293807864189148,A
1526528415.97407,-2.63697890709454,1.45068007601071,2.46985670840483,-0.829136729240417,0.305309981107712,0.409801751375198,A
1526528415.98983,-2.64215979751774,1.44734128554153,2.4823768967268,-0.903929889202118,0.258639723062515,0.491310566663742,A
1526528415.99109,-2.65202655577059,1.44604835372235,2.49835492040359,-0.904396057128906,0.258479654788971,0.489601641893387,A
1526528416.00583,-2.66275994062877,1.44674285247474,2.51338588779727,-0.883022606372833,0.244756639003754,0.54243278503418,A
1526528416.02296,-2.67537099189646,1.4491419263049,2.5277556868035,-0.885482370853424,0.245050638914108,0.543849468231201,A
1526528416.02392,-2.69188252664192,1.45293774696037,2.54298835256323,-0.888917803764343,0.245504125952721,0.546357452869415,A
1526528416.03728,-2.71372565091281,1.45794916832696,2.56114978432532,-0.874814808368683,0.2086511105299,0.512671053409576,A
1526528416.05356,-2.74031825120122,1.46400777023173,2.58184038841988,-0.822626292705536,0.156916439533234,0.471644222736359,A
1526528416.05414,-2.77273478608105,1.47085398843324,2.60623618436812,-0.828283548355103,0.157622829079628,0.476698100566864,A
1526528416.06917,-2.81678270448457,1.47879736527517,2.64011668664419,-0.783014059066772,0.111905723810196,0.432175815105438,A
1526528416.08753,-2.87664113795377,1.48721265076971,2.68719593556935,-0.67786031961441,0.0591157302260399,0.318383157253265,A
1526528416.08811,-2.95663988700203,1.49562690601074,2.75301481782527,-0.685911655426025,0.0597829222679138,0.325138449668884,A
1526528416.10123,-3.06716668719819,1.50393379575243,2.84855754670336,-0.694754302501678,0.0603723451495171,0.332328528165817,A
1526528416.11763,3.05328950450902,1.51216319516217,2.99481632037029,-0.623423397541046,0.0177365262061357,0.268838256597519,A
1526528416.11828,2.81574786695554,1.51926745056015,-3.06838259899506,-0.634743213653564,0.0181276369839907,0.278413623571396,A
1526528416.13322,2.49710344358641,1.52265620417478,-2.76864060487415,-0.547602951526642,0.0106823081150651,0.143767043948174,A
1526528416.15033,2.15326776259424,1.52030352545971,-2.44496010159849,-0.404728263616562,0.00128898583352566,-0.0621875897049904,A
1526528416.15111,1.86402918486794,1.51197737391689,-2.17598851624481,-0.418855100870132,0.000834140635561198,-0.0514155626296997,A
1526528416.16411,1.66204880288638,1.49945228823527,-1.99473424922324,-0.11880799382925,0.0441785044968128,-0.236888229846954,A
1526528416.18487,1.52079422742291,1.48497396264464,-1.87465705606712,-0.133430957794189,0.0430419333279133,-0.226108208298683,A
1526528416.18677,1.42238736652955,1.47019458079353,-1.79776397307792,-0.147149190306664,0.0416663214564323,-0.215542078018188,A
1526528416.19615,1.35157078036687,1.45602065630703,-1.74840277126435,0.221713244915009,0.112240694463253,-0.420727014541626,A
1526528416.21223,1.29382782475012,1.44218382730842,-1.70954054707862,0.478299170732498,0.135295495390892,-0.479577392339706,A
1526528416.21313,1.24203421084842,1.42827768102489,-1.67284981242906,0.467239737510681,0.133416086435318,-0.468788802623749,A
1526528416.22797,1.19798037309601,1.41395299064063,-1.64069871854997,0.703848540782928,0.175179496407509,-0.625997245311737,A
1526528416.24385,1.16903483955679,1.40022219307626,-1.62055970775779,0.958499073982239,0.217146411538124,-0.73827862739563,A
1526528416.24471,1.15450876125509,1.38888048125623,-1.61270974331814,0.949267387390137,0.215157836675644,-0.73150110244751,A
1526528416.25987,1.14806956577011,1.38091313607446,-1.6118310812243,0.942601084709167,0.213685229420662,-0.727224946022034,A
1526528416.2761,1.14443685291955,1.37653262617124,-1.61329117404456,1.00545108318329,0.190739020705223,-0.561308681964874,A
1526528416.27689,1.14293485270173,1.37529510874565,-1.61658992790869,1.00446653366089,0.190499380230904,-0.560541033744812,A
1526528416.29185,1.14613344086717,1.37628891866516,-1.62320953935049,0.760041832923889,0.136050224304199,-0.363342583179474,A
1526528416.30748,1.15285215110136,1.37836449575339,-1.63121785846338,0.494831770658493,0.104314275085926,-0.118543438613415,A
1526528416.30823,1.1604276537559,1.38059566484426,-1.63790304809568,0.496257364749908,0.104738533496857,-0.120743609964848,A
1526528416.32324,1.16543852839128,1.38222768194325,-1.64096453543043,0.325845748186111,0.088901974260807,0.036339282989502,A
1526528416.3396,1.16572511907406,1.38397526378473,-1.63940590464349,0.327402532100677,0.0892280638217926,0.0356133133172989,A
1526528416.34027,1.16143903036086,1.38672923148454,-1.63465970018784,0.330200910568237,0.0897358432412148,0.0352669581770897,A
1526528416.35507,1.15480195011482,1.39079799177912,-1.62864360496431,0.245740592479706,0.0675689652562141,0.0289186220616102,A
1526528416.37096,1.14493321026182,1.39573443937055,-1.61953355829618,0.112032406032085,0.0349934734404087,0.086247943341732,A
1526528416.37163,1.13143686405512,1.40097440850952,-1.60624221164848,0.117689847946167,0.035892590880394,0.0861862078309059,A
1526528416.38756,1.11471728880729,1.40598038147318,-1.58908666570423,-0.033271562308073,-0.0148331681266427,0.0958062186837196,A
1526528416.40267,1.09706592456588,1.41043946590158,-1.57010975402682,-0.155590429902077,-0.0608643032610416,0.0649848505854607,A
1526528416.40336,1.08216866393335,1.41382160197153,-1.55301764208365,-0.151540711522102,-0.0603299215435982,0.0655257031321526,A
1526528416.42011,1.07239972340159,1.41602686937936,-1.54101822625462,-0.148903742432594,-0.0599875710904598,0.0658292770385742,A
1526528416.43458,1.06559148135182,1.41733367001657,-1.5319567916368,-0.158194214105606,-0.0867950245738029,0.0453877225518227,A
1526528416.43512,1.06329663247869,1.41818409807867,-1.52666292383419,-0.157289534807205,-0.0866653844714165,0.045286025851965,A
1526528416.45087,1.06879956113622,1.41903037387737,-1.52750760747393,-0.117821998894215,-0.0709578618407249,-0.0329971462488174,A
0,0,0,0,0,0,0,0,0
1526528417.0399,-0.0102180720827799,1.29246307234043,-0.0406382447702473,-0.165680140256882,-0.17273211479187,-0.0164596438407898,A
1526528417.04175,-0.00574515443248656,1.29340429521429,-0.0411207283612273,-0.166914254426956,-0.172473937273026,-0.017354940995574,A
1526528417.05511,-0.00190937705161844,1.29614457438776,-0.0417137158315922,-0.158051490783691,-0.0803880095481873,-0.0603774823248386,A
1526528417.07053,-0.00434027222927027,1.30001158236373,-0.041286381213794,-0.100233688950539,-0.114960446953773,0.054380901157856,A
1526528417.07144,-0.0045860298017695,1.30285041302167,-0.0449008817046953,-0.100180499255657,-0.114204972982407,0.0516441762447357,A
1526528417.08712,-0.001576130711972,1.30414777221434,-0.0515147462301259,-0.0795102268457413,-0.0307476874440908,0.042155597358942,A
1526528417.10263,0.00220298857754983,1.30469885899163,-0.0577994621057404,-0.0805048495531082,-0.0306026209145784,0.0416236370801926,A
1526528417.1035,0.00797542087753906,1.30539209897932,-0.0635373396565652,-0.0820174664258957,-0.0304205529391766,0.0409470275044441,A
1526528417.11832,0.0143411026267799,1.30658273911226,-0.0687558050325311,-0.0335454680025578,0.00556611549109221,-0.0465853698551655,A
1526528417.13331,0.0194462355045997,1.30827595333511,-0.0728113373195214,-0.0152086326852441,0.00966902449727058,-0.0294588413089514,A
1526528417.13401,0.0222426401834084,1.31034240163665,-0.0752397555352964,-0.0158897880464792,0.0102032367140055,-0.03146967664361,A
1526528417.15115,0.0243639176743785,1.31234006040244,-0.0778131526886715,-0.0121316695585847,0.0262339320033789,0.0184519961476326,A
1526528417.16645,0.0260530367672477,1.31392906072198,-0.0798888295959578,0.0211681816726923,0.0305145736783743,0.0413801893591881,A
1526528417.16727,0.0270163539448626,1.31504928989384,-0.0811372043940084,0.020952807739377,0.0307985637336969,0.0402904562652111,A
1526528417.18454,0.0272956533541942,1.31607954219402,-0.0815462120461372,0.0209093857556581,0.0310586709529161,0.0392920337617397,A
1526528417.19783,0.0258982273896884,1.31693609983518,-0.0805124841448191,0.0279967077076435,0.0123532461002469,0.0325369909405708,A
1526528417.19927,0.0234641743908103,1.31744116039654,-0.0790382885985128,0.0286192856729031,0.0124799646437168,0.0320633053779602,A
1526528417.21647,0.0201724132486463,1.31795350332964,-0.0768306998567338,0.0115708848461509,-0.0220139343291521,0.0117642218247056,A
1526528417.22937,0.0160215577813302,1.31868239194218,-0.0735347398420061,0.00819533970206976,-0.0605586618185043,-0.0136419162154198,A
1526528417.23157,0.011294882584226,1.31933346220142,-0.0695194629428858,0.00938142742961645,-0.0603964552283287,-0.0142563134431839,A
1526528417.24514,0.00584672068969899,1.31987281325248,-0.0644039124191436,0.00210357317700982,-0.140905097126961,-0.0212215781211853,A
1526528417.26328,9.7077339492397e-09,1.32051513943383,-0.0586815033728048,0.00355529552325606,-0.140745803713799,-0.0218395963311195,A
1526528417.26427,-0.00588694585092124,1.32147250285944,-0.0531060536123391,0.00500788586214185,-0.140509128570557,-0.0227715186774731,A
1526528417.27737,-0.0130475661885139,1.32260752803339,-0.0463524456787517,-0.00898674596101046,-0.26010274887085,-0.0231253020465374,A
1526528417.2935,-0.0227441218559719,1.32403867091791,-0.036918073493318,-0.0286094024777412,-0.424119859933853,-0.0325659736990929,A
1526528417.29438,-0.0337175950118956,1.32590290584464,-0.0264393323114657,-0.0259910486638546,-0.423666179180145,-0.0344487950205803,A
1526528417.30882,-0.0458220758247449,1.32831732780149,-0.0149515159232676,-0.0806610658764839,-0.644229233264923,-0.0322216600179672,A
1526528417.32524,-0.0592890209183993,1.33138992075244,-0.0022333631022713,-0.178606733679771,-0.829699099063873,-0.0789034366607666,A
1526528417.32579,-0.0761697063975905,1.33548435843292,0.0124444687737405,-0.174915954470634,-0.828736305236816,-0.0831424370408058,A
1526528417.3408,-0.0982474096451218,1.34125705309896,0.0297908737271927,-0.170339286327362,-0.827406644821167,-0.089181125164032,A
1526528417.35658,-0.123741357289259,1.34998215093681,0.0492626727280954,-0.306310266256332,-0.961002349853516,-0.238537445664406,A
1526528417.35777,-0.151471534554392,1.3622351970915,0.0699085503357545,-0.302100747823715,-0.958391964435577,-0.251205146312714,A
1526528417.37249,-0.176918702222965,1.37735247597099,0.0875209523923122,-0.469019740819931,-0.963064193725586,-0.245545029640198,A
1526528417.38811,-0.191727230707009,1.39427801745957,0.0954279236068235,-0.51847892999649,-0.823385000228882,-0.163430020213127,A
1526528417.38863,-0.189349900846925,1.41268318937207,0.088090937248185,-0.522304654121399,-0.820319950580597,-0.181174501776695,A
1526528417.40435,-0.167493754068384,1.43221305830359,0.0633608732322208,-0.358104467391968,-0.578587532043457,-0.105278670787811,A
1526528417.42081,-0.126580819365637,1.45173693272716,0.0207104668489292,-0.366139084100723,-0.576079428195953,-0.123657584190369,A
1526528417.42192,-0.0609054951607236,1.47119755210122,-0.046165722558511,-0.375081688165665,-0.57395613193512,-0.142235770821571,A
1526528417.43626,0.0385190425288028,1.49033520285135,-0.146711048562162,-0.203534632921219,-0.277542501688004,-0.10636130720377,A
1526528417.45246,0.187062294075341,1.50764744912696,-0.297262618676243,-0.0853903740644455,-0.0585575588047504,0.0597477033734322,A
1526528417.45346,0.406032793470145,1.521524467133,-0.519802215337885,-0.093107096850872,-0.0577779449522495,0.042989194393158,A
1526528417.46814,0.71850485794562,1.5312661818153,-0.837694481568356,0.0194110833108425,0.128186076879501,0.00162823020946234,A
1526528417.48685,1.14535002910732,1.53643882862619,-1.27231653578004,-0.056465532630682,0.231007739901543,-0.220166996121407,A
1526528417.48783,1.65183393540902,1.53481187415508,-1.78740368760307,-0.0610356219112873,0.230950534343719,-0.237256750464439,A
1526528417.49921,2.06819065842679,1.52450056458339,-2.21217097313345,-0.0658485218882561,0.230526447296143,-0.25642603635788,A
1526528417.51723,2.31449781737143,1.50816720111681,-2.46672793967675,-0.0724758431315422,0.353050410747528,-0.201415613293648,A
1526528417.51807,2.45162047699146,1.48991192414211,-2.61153719949182,-0.0778410360217094,0.35174161195755,-0.221357569098473,A
1526528417.53108,2.53791008805633,1.47191247804937,-2.70446022345956,0.0789975374937057,0.476346671581268,-0.103902377188206,A
1526528417.54965,2.60198606100343,1.45551615462458,-2.77360620279302,0.181882381439209,0.572220027446747,0.00858808308839798,A
1526528417.55024,2.65199611770797,1.44147707630798,-2.82732272081943,0.180336475372314,0.570507347583771,-0.00654004840180278,A
1526528417.5624,2.68988779550329,1.4301648187227,-2.86814727225244,0.130222737789154,0.603744626045227,0.078586533665657,A
1526528417.57853,2.71688773966095,1.4213897416406,-2.8978113614386,0.130071759223938,0.602476537227631,0.0690691992640495,A
1526528417.57932,2.73338350967831,1.4148471795044,-2.91767241154652,0.129750326275826,0.60148149728775,0.0621408224105835,A
1526528417.59607,2.74079777710513,1.40958405253352,-2.93012387886636,0.0125856352970004,0.65367466211319,-0.0129065671935678,A
1526528417.61075,2.74482486440435,1.40409136496481,-2.93987081826847,-0.0215360913425684,0.627891004085541,-0.163983851671219,A
1526528417.61178,2.74922474647973,1.39758084164587,-2.95045534071303,-0.0233157034963369,0.626789808273315,-0.170193582773209,A
1526528417.62686,2.75709381924554,1.39074279238324,-2.96532381549477,0.0949671119451523,0.667900860309601,-0.145651608705521,A
1526528417.64268,2.7706859894976,1.3845077153089,-2.9854556209775,0.102133333683014,0.705781877040863,-0.0720171555876732,A
1526528417.64389,2.79022448480112,1.379625055926,-3.01015736525884,0.103867948055267,0.704865872859955,-0.0777987241744995,A
1526528417.66054,2.81232095224759,1.37613175898572,-3.03629323857067,0.106716983020306,0.704196095466614,-0.0824444219470024,A
1526528417.6736,2.83095275424441,1.37425505730803,-3.05865990763563,-0.0400980561971664,0.669300734996796,0.0160638671368361,A
1526528417.67414,2.84357919050451,1.3738019912439,-3.07519627450589,-0.0378761664032936,0.669212162494659,0.0149002932012081,A
1526528417.6894,2.84911794666759,1.37433806223874,-3.08549936848376,-0.154744684696198,0.649312674999237,0.0299808438867331,A
1526528417.70607,2.84696224993933,1.37534684066142,-3.08943578992853,-0.14938223361969,0.668002724647522,0.0289437230676413,A
1526528417.70714,2.83867889567765,1.37678963583831,-3.08781867738626,-0.150497391819954,0.66828191280365,0.0307683143764734,A
1526528417.72264,2.8255438267771,1.37969040310456,-3.08092343726275,-0.152024477720261,0.668837010860443,0.0342457070946693,A
1526528417.73789,2.80735245742083,1.38461473142166,-3.06752437703065,-0.115992240607738,0.727316617965698,0.1058214828372,A
1526528417.73885,2.78435410566656,1.39168655285667,-3.04797054921013,-0.117565609514713,0.728601098060608,0.113779313862324,A
1526528417.75407,2.75685907097807,1.40056967746053,-3.02321943504476,-0.0711178779602051,0.718090355396271,0.140295594930649,A
1526528417.76964,2.72502552808508,1.41072164883507,-2.99510339113843,-0.0153146497905254,0.673982977867126,0.0713407844305038,A
1526528417.77164,2.6897898595835,1.42171334869955,-2.9657979692821,-0.0156679470092058,0.675675272941589,0.0834741219878197,A
1526528417.78516,2.65267395968766,1.43358070326606,-2.93724162045187,-0.0172166414558887,0.594574093818665,0.00150884746108204,A
1526528417.8022,2.61344508555163,1.4460567904891,-2.90957904472691,-0.0156700368970633,0.596203505992889,0.0148050878196955,A
1526528417.80307,2.57423205671091,1.45847401824119,-2.88311406400061,-0.0132084796205163,0.597671866416931,0.0277438163757324,A
1526528417.81772,2.53319700554878,1.4701198544385,-2.85463041893404,-0.072917066514492,0.522219121456146,-0.104856856167316,A
1526528417.83298,2.48275390182414,1.48070983315772,-2.81498057087485,-0.15547913312912,0.434207886457443,-0.129042521119118,A
1526528417.83366,2.41374800403296,1.49027504192059,-2.75434378699184,-0.153912708163261,0.435022860765457,-0.117960155010223,A
1526528417.85026,2.32074665169368,1.49892690324455,-2.66849845249072,-0.0716777518391609,0.371060460805893,-0.0723359361290932,A
1526528417.8643,2.1970912203514,1.50719588055726,-2.55162353369486,0.0249518789350986,0.280479401350021,-0.0389630608260632,A
1526528417.86515,2.03661829423385,1.51479441709216,-2.39783912099344,0.0264376271516085,0.280933529138565,-0.0268495082855225,A
1526528417.88426,1.83354194210583,1.52083133831912,-2.20282648019027,0.0282163918018341,0.281253218650818,-0.0146811371669173,A
1526528417.89704,1.58450960660971,1.52466500615447,-1.96326635191927,0.100038059055805,0.208042591810226,-0.0263434275984764,A
1526528417.89797,1.30682559795368,1.52569115127336,-1.69635028848357,0.102620638906956,0.208089381456375,-0.0139463972300291,A
1526528417.91288,1.03072747694891,1.52428818335057,-1.43124779678297,0.114315651357174,0.157884761691093,-0.111210942268372,A
1526528417.92856,0.783695343966484,1.52084650707828,-1.1949164894018,0.123629510402679,0.027973348274827,-0.163044795393944,A
1526528417.92945,0.578926366948302,1.5154372031292,-0.999260431103066,0.128601580858231,0.0276886560022831,-0.152095317840576,A
1526528417.94406,0.422342710217887,1.50816418061585,-0.849360582813391,0.0557953789830208,-0.116340637207031,-0.121466957032681,A
1526528417.96044,0.309655385927981,1.4993688303529,-0.74135362347287,0.0597037859261036,-0.116929739713669,-0.110585875809193,A
1526528417.96192,0.229376027661717,1.48988834633332,-0.665340743025727,0.0630754381418228,-0.117651149630547,-0.0998554080724716,A
1526528417.9763,0.16151693357135,1.48048239989725,-0.60251505083274,0.134757325053215,-0.250077724456787,-0.0875116139650345,A
1526528417.9921,0.0944873194364069,1.4709021120309,-0.540613489705056,0.249639436602592,-0.336818158626556,-0.0684565603733063,A
1526528417.99303,0.0289297483360482,1.46127309210078,-0.479169532057537,0.255886763334274,-0.337824553251266,-0.0584812015295029,A
1526528418.00752,-0.029224382746572,1.45112305373006,-0.424084054705092,0.158197402954102,-0.518916845321655,-0.0543539524078369,A
1526528418.02393,-0.068376163026359,1.44076469477727,-0.385961826745599,0.0873198136687279,-0.708515465259552,-0.225541666150093,A
1526528418.02513,-0.0926776816415203,1.43243431402713,-0.360697409833063,0.0912245959043503,-0.709630012512207,-0.21757510304451,A
1526528418.03968,-0.114453447231197,1.42781370025587,-0.338792661631288,0.0947342589497566,-0.710277855396271,-0.213340535759926,A
1526528418.05538,-0.141390872256191,1.42591287131942,-0.314262400731422,0.0749721229076385,-0.773462474346161,-0.143013343214989,A
1526528418.05603,-0.178266069799704,1.42583697657694,-0.282978215549662,0.0802412182092667,-0.7734734416008,-0.143786683678627,A
1526528418.07203,-0.220548254070405,1.42617028066592,-0.248270680700638,0.039905957877636,-0.783572435379028,0.0479495227336884,A
1526528418.08755,-0.25638599412029,1.42507168149017,-0.21965355284647,-0.100704334676266,-0.735376298427582,0.168630659580231,A
1526528418.08823,-0.27527514636304,1.42218433889276,-0.206103696608609,-0.0972815081477165,-0.735799670219421,0.170658677816391,A
1526528418.10286,-0.274480959183442,1.41838961901861,-0.208754367086682,-0.129489332437515,-0.667795658111572,0.114243380725384,A
1526528418.1197,-0.25491113368868,1.41404962046477,-0.227179269911844,-0.131275534629822,-0.668463885784149,0.119170315563679,A
1526528418.1211,-0.22093223772495,1.4091578066214,-0.257984128644625,-0.13537172973156,-0.669239282608032,0.125132948160172,A
1526528418.13491,-0.179106370697918,1.40389533991207,-0.295303451445077,-0.0482699871063232,-0.565882384777069,0.109941877424717,A
1526528418.15146,-0.138792682326763,1.39875423500867,-0.330502067965648,0.14265713095665,-0.448203921318054,0.0185474213212729,A
1526528418.15248,-0.108253811672727,1.39460355412634,-0.35628695620044,0.137910738587379,-0.448922991752625,0.0232555363327265,A
1526528418.1672,-0.0920600317000583,1.3917494275623,-0.369279261043494,0.247969880700111,-0.365626007318497,0.00842285994440317,A
1526528418.18661,-0.091423329739323,1.3898257714665,-0.368734614636906,0.264204084873199,-0.339862644672394,-0.044018629938364,A
1526528418.18742,-0.104067270158981,1.38840534017691,-0.356368767249354,0.266614019870758,-0.340119272470474,-0.0428512208163738,A
1526528418.19787,-0.125082355873499,1.38794314443398,-0.3363338883397,0.270457416772842,-0.34020322561264,-0.0428360290825367,A
1526528418.21688,-0.149968702092149,1.38904386066154,-0.311881365349312,0.213269904255867,-0.368842780590057,-0.237428322434425,A
1526528418.21841,-0.174255212695015,1.39196976999922,-0.286176109821076,0.21710304915905,-0.368318110704422,-0.240971744060516,A
1526528418.23068,-0.194422920180364,1.39627803804203,-0.262592885456052,0.196357384324074,-0.416984140872955,-0.278459638357162,A
1526528418.24676,-0.205807935286908,1.40117467866394,-0.246554075957476,0.263821929693222,-0.45262947678566,-0.17436794936657,A
1526528418.24967,-0.207129767873318,1.40588666872104,-0.240193050614184,0.263084799051285,-0.451845020055771,-0.178960606455803,A
1526528418.26237,-0.201842889772738,1.41049229468197,-0.239803762838793,0.261323839426041,-0.451099395751953,-0.183236971497536,A
1526528418.27908,-0.195046180897621,1.41557610611053,-0.239706358320099,0.412531226873398,-0.37917947769165,-0.282614082098007,A
1526528418.2824,-0.189779810359,1.42174113962848,-0.236599515999363,0.410582512617111,-0.378245145082474,-0.28844279050827,A
1526528418.29348,-0.186095736262919,1.42923518627892,-0.231160669619955,0.472760021686554,-0.331688851118088,-0.345783263444901,A
1526528418.30968,-0.181622403905796,1.43813418025468,-0.226078382512729,0.413525134325027,-0.246579691767693,-0.372465759515762,A
1526528418.31057,-0.177796684431416,1.4487449082131,-0.219792111957852,0.411165803670883,-0.245232000946999,-0.38273411989212,A
1526528418.32574,-0.178829671249034,1.46210739405083,-0.206728502754748,0.362297654151917,-0.0950426757335663,-0.44978865981102,A
1526528418.34186,-0.190622281262509,1.47822415695928,-0.180641264192623,0.360516935586929,-0.0934235900640488,-0.465768218040466,A
1526528418.34272,-0.224062187530599,1.495960549707,-0.130861087604095,0.359614729881287,-0.091940738260746,-0.483636796474457,A
1526528418.35765,-0.292971210488649,1.51411625794177,-0.0440694062241653,0.256213247776031,0.0292626451700926,-0.288446009159088,A
1526528418.37326,-0.433226877505207,1.53125189182676,0.114216955871012,0.136591613292694,0.141994714736938,0.000252529163844883,A
1526528418.37427,-0.746583378498458,1.54507509852843,0.444128853395797,0.137461379170418,0.142445713281631,-0.0167516246438026,A
1526528418.3892,-1.41524265389054,1.55146110381991,1.12798402205821,-0.0420871675014496,0.227565765380859,0.0869492217898369,A
1526528418.40477,-2.10732295334644,1.54562936855713,1.8340334404968,-0.205681726336479,0.283145844936371,0.0990756526589394,A
1526528418.40554,-2.4423121512565,1.53256900528881,2.18113415495215,-0.202710494399071,0.282731950283051,0.0826900228857994,A
1526528418.42106,-2.58803281956698,1.51718821296313,2.33741558560956,-0.199140891432762,0.282025963068008,0.0663581192493439,A
1526528418.43633,-2.65505817978238,1.50182853274759,2.41432766875506,-0.343999326229095,0.335803210735321,0.163296297192574,A
1526528418.43703,-2.68435144478072,1.48714540576818,2.45295644398413,-0.339334011077881,0.334683835506439,0.149242371320724,A
1526528418.45274,-2.69608536989723,1.47304506375965,2.4733533025028,-0.491010278463364,0.368608713150024,0.191837668418884,A
1526528418.4679,-2.69729873163204,1.45971234551902,2.48189205878493,-0.687138974666595,0.376481175422668,0.230549529194832,A
1526528418.46843,-2.69543259564641,1.44754000060591,2.48577269686943,-0.681735873222351,0.375058203935623,0.21973317861557,A
1526528418.48664,-2.6957458112351,1.43682877275278,2.4901903903361,-0.866200506687164,0.367947101593018,0.291843086481094,A
1526528418.50134,-2.70023204986769,1.42817757870852,2.49735735015994,-0.863081455230713,0.366754531860352,0.283838450908661,A
1526528418.50216,-2.70664360711466,1.42222002424753,2.50573548542274,-0.861422955989838,0.365890175104141,0.278106123209,A
1526528418.5172,-2.71648030445383,1.41901720090506,2.51724176944708,-0.950460195541382,0.346352756023407,0.385652363300323,A
1526528418.53136,-2.73157498468554,1.4187522803827,2.53348470867063,-0.987079441547394,0.352660328149796,0.433970928192139,A
1526528418.53296,-2.75155220550474,1.42150269449546,2.55424019797387,-0.990900158882141,0.353073179721832,0.435307592153549,A
1526528418.54817,-2.77722753637082,1.42724584629892,2.579893744668,-0.952316284179688,0.381331145763397,0.430878430604935,A
1526528418.56359,-2.81078716608957,1.43470394816146,2.61234142775777,-0.903732538223267,0.346939623355865,0.364893198013306,A
1526528418.56424,-2.85512212177623,1.4425957294257,2.65337025551869,-0.911673426628113,0.347979456186295,0.370570361614227,A
1526528418.57946,-2.9139092802559,1.450605264987,2.70524575320246,-0.92073529958725,0.348971664905548,0.376402378082275,A
1526528418.595,-2.98621473065693,1.45894337789956,2.76705611069626,-0.846953749656677,0.294913709163666,0.447677701711655,A
1526528418.59566,-3.07237034294016,1.46808482437638,2.83957658651019,-0.857135534286499,0.295892536640167,0.455667436122894,A
1526528418.61223,3.10228154244457,1.47847661360227,2.93203257382993,-0.733466267585754,0.245543196797371,0.489089876413345,A
1526528418.62718,2.95540469733495,1.48960178949929,3.06146144735899,-0.632735311985016,0.146867275238037,0.397499769926071,A
1526528418.62786,2.74672804322391,1.50007107311811,-3.03053522489871,-0.644905686378479,0.147661760449409,0.411974936723709,A
1526528418.64375,2.4572055848442,1.50714642715059,-2.75832501294965,-0.453755885362625,0.0320173874497414,0.221133187413216,A
1526528418.65933,2.11284567477295,1.50765641648625,-2.43248345910023,-0.467596769332886,0.0320496968924999,0.237864479422569,A
1526528418.66049,1.79278317534128,1.50044950002149,-2.13380025856463,-0.482107758522034,0.0315690413117409,0.254940897226334,A
1526528418.67501,1.55904194841941,1.48793151904211,-1.92573387451797,-0.185989990830421,-0.0378398932516575,-0.0437963977456093,A
1526528418.69122,1.40111279801638,1.47314281080786,-1.79725628409989,0.185365483164787,-0.0264317970722914,-0.395476937294006,A
1526528418.6921,1.28961955893969,1.45756491636247,-1.71568824974774,0.172911167144775,-0.0280713103711605,-0.380588442087173,A
1526528418.70635,1.20393602596785,1.44092086988111,-1.65678996888447,0.387667417526245,-0.0235281698405743,-0.605401754379272,A
1526528418.7233,1.13601927878805,1.42278668056628,-1.6093098622235,0.62191116809845,0.0231852065771818,-0.883212268352509,A
1526528418.7245,1.0894911065296,1.40415824179861,-1.57713298836762,0.608637094497681,0.0202666241675615,-0.868541419506073,A
1526528418.73866,1.06592061555182,1.38778439775945,-1.56446555905142,0.596375286579132,0.0174186583608389,-0.85729843378067,A
1526528418.75535,1.06168020172559,1.37522714617205,-1.56910524532875,0.834501147270203,0.0524246506392956,-1.01324093341827,A
1526528418.75624,1.068386093043,1.3665672044515,-1.58329593519489,0.826431214809418,0.0507050454616547,-1.010293841362,A
1526528418.76966,1.07983003009775,1.36067555770675,-1.60052824115802,0.852863907814026,0.0700314864516258,-0.729952871799469,A
1526528418.78693,1.09299229902211,1.3570158501066,-1.61773747668871,0.772114455699921,0.0971851870417595,-0.466729611158371,A
1526528418.78748,1.105599543377,1.35571105501785,-1.63294587247603,0.769760072231293,0.0969075411558151,-0.468540519475937,A
1526528418.80221,1.11916625921856,1.35663601871222,-1.6475644016834,0.570561408996582,0.0980810970067978,-0.293110519647598,A
1526528418.81857,1.1351621776007,1.35944120593412,-1.66388746832643,0.571588099002838,0.0986734330654144,-0.297338038682938,A
1526528418.81978,1.15181292164676,1.36341880899658,-1.68055000460584,0.573694705963135,0.0995001345872879,-0.302099853754044,A
1526528418.83405,1.16621689824388,1.36782046932411,-1.69441868675678,0.341422766447067,0.0857484936714172,-0.0445510298013687,A
1526528418.85172,1.17782891729673,1.37153872841281,-1.70473196083083,0.108527906239033,0.0710188522934914,0.148521453142166,A
1526528418.85325,1.18543765468693,1.37389428256734,-1.71046470680159,0.110096603631973,0.0714823976159096,0.146259874105453,A
1526528418.86702,1.18731520893984,1.37493646697312,-1.70990490180978,0.00713174045085907,0.0650481730699539,0.219725161790848,A
1526528418.88705,1.18441597778801,1.37538842396362,-1.7043865918176,0.0628384798765182,0.0914421826601028,0.0568577572703362,A
1526528418.88806,1.18031227278463,1.37615787175676,-1.69678136768486,0.0638383030891418,0.0915912911295891,0.0573078729212284,A
1526528418.89893,1.17782026008119,1.37794715909262,-1.68839937130984,0.0656442865729332,0.0919357910752296,0.0570809803903103,A
1526528418.91279,1.18156515692238,1.38119350747664,-1.68243325304611,0.056265015155077,0.0749899372458458,-0.0848524421453476,A
1526528418.9166,1.19646302277913,1.38586712563721,-1.6846068876051,0.0594928376376629,0.0758600383996964,-0.0891370847821236,A
0,0,0,0,0,0,0,0,0
1526528419.45825,0.0750762000396426,1.34719621206297,-0.128284637762617,-0.236129552125931,-0.288459599018097,-0.0834637656807899,A
1526528419.45918,0.0688126877270011,1.34161101450506,-0.115437269668451,-0.235118508338928,-0.289713263511658,-0.0779341384768486,A
1526528419.46945,0.0606985011731115,1.33825112743387,-0.0989083323653877,-0.131701245903969,-0.226395159959793,-0.0299639534205198,A
1526528419.48713,0.042642070575511,1.33655650323486,-0.0777615341194959,-0.0957708433270454,-0.301311016082764,0.124272406101227,A
1526528419.48827,0.0209045534817862,1.33331101499489,-0.0572492347020171,-0.0907940939068794,-0.302069425582886,0.127587616443634,A
1526528419.50143,0.00124826231666326,1.32788388045382,-0.0393887187432745,-0.0861767083406448,-0.303360521793365,0.132910162210464,A
1526528419.51862,-0.0169623420441774,1.32150966166424,-0.0217212804541647,-0.168026074767113,-0.243496790528297,0.0603216551244259,A
1526528419.51944,-0.0303168490344504,1.31605366435552,-0.00714955436898281,-0.164572134613991,-0.244857266545296,0.0655249953269958,A
1526528419.53258,-0.0392033500744004,1.31301204697959,0.0029661411839211,-0.242327451705933,-0.242439135909081,-0.163271740078926,A
1526528419.55031,-0.0461649564230015,1.31257781497579,0.0110406764815736,-0.20966637134552,-0.204616576433182,-0.118219807744026,A
1526528419.55089,-0.0509958941191851,1.31385377922963,0.0165809398841063,-0.208497107028961,-0.20429153740406,-0.119511976838112,A
1526528419.5642,-0.0535928573450182,1.31590503343496,0.0196267505417717,-0.142972439527512,-0.164480924606323,0.00731714488938451,A
1526528419.58476,-0.0554274580523774,1.31764818738439,0.0217156337486752,-0.142604008316994,-0.164042875170708,0.00560731720179319,A
1526528419.5854,-0.0570255487488496,1.31868995651215,0.0237109162565183,-0.142261892557144,-0.163782477378845,0.00457776198163629,A
1526528419.59756,-0.0593763505104181,1.31909272577136,0.0269885926960955,-0.0903385505080223,-0.124955289065838,0.0521279163658619,A
1526528419.61243,-0.0609364884738169,1.31913562326879,0.0294471649908507,-0.0656307190656662,-0.111562646925449,0.0129242921248078,A
1526528419.61593,-0.0612243459205834,1.31923251744986,0.030599464773775,-0.0655649155378342,-0.111538521945477,0.0128262490034103,A
1526528419.62952,-0.0604961860456975,1.31978381669647,0.0303638516087556,-0.0720189586281776,-0.105893015861511,-0.0301914624869823,A
1526528419.64415,-0.0579497810424671,1.32106677387013,0.0280754036224888,-0.0405262820422649,-0.124770700931549,-0.0205153785645962,A
1526528419.64499,-0.0547395135685346,1.32269216237966,0.0248698357337216,-0.0414046011865139,-0.124370284378529,-0.0220436323434114,A
1526528419.66103,-0.050718045569178,1.32425251975286,0.0204684319722737,-0.0424674637615681,-0.123988293111324,-0.0235025156289339,A
1526528419.67541,-0.0458716426662789,1.32565524353165,0.0153978138780353,-0.0277658216655254,-0.172566577792168,0.0188203454017639,A
1526528419.67616,-0.0412995444868267,1.32707479582539,0.0108740802430737,-0.0289312526583672,-0.172223046422005,0.0174925122410059,A
1526528419.69107,-0.0390640497766795,1.32889375575465,0.00883886991857648,0.0162829123437405,-0.243303656578064,-0.00541401328518987,A
1526528419.70696,-0.0405685709921051,1.33103636434363,0.0103209950224615,0.0245237331837416,-0.367472171783447,0.00291433278471231,A
1526528419.70759,-0.0454408679702396,1.33354106751245,0.0145987935302987,0.0255691278725863,-0.36688044667244,0.00043330472544767,A
1526528419.72371,-0.0538407659791249,1.33658132261701,0.0215883742504803,-0.0378494448959827,-0.513677060604095,-0.0593792386353016,A
1526528419.74101,-0.0654436386209314,1.34110684824419,0.0309684885356451,-0.0354494862258434,-0.512636780738831,-0.0639346465468407,A
1526528419.74189,-0.0802117551824518,1.34765290452357,0.0424644056311113,-0.0326072163879871,-0.511167287826538,-0.0705377608537674,A
1526528419.75554,-0.097768075918468,1.35622004660465,0.0557250772002405,-0.0749334394931793,-0.629241287708282,-0.138470992445946,A
1526528419.77076,-0.115447338238965,1.36642484561718,0.0686406120663175,-0.172834545373917,-0.721052348613739,-0.118620164692402,A
1526528419.77137,-0.129226160916425,1.37796144358875,0.0776657247193655,-0.171516478061676,-0.718776166439056,-0.130176872014999,A
1526528419.78771,-0.134969011180142,1.39038741379158,0.0794206079349678,-0.240916147828102,-0.748498857021332,-0.13421168923378,A
1526528419.80279,-0.1300034099601,1.40347395533883,0.0716171456045824,-0.213730856776237,-0.687397181987762,-0.152687981724739,A
1526528419.80364,-0.113029253808774,1.41724521087292,0.0525405484291138,-0.218070179224014,-0.685197234153748,-0.16585285961628,A
1526528419.82139,-0.0845149575184953,1.43151843363939,0.0221042401576417,-0.223601967096329,-0.683114886283875,-0.179492801427841,A
1526528419.83429,-0.0470692290176594,1.44678131986825,-0.0175582635473673,-0.0788813456892967,-0.543751776218414,-0.218450129032135,A
1526528419.83483,-0.000963148605753905,1.46310563858765,-0.0663431732023344,-0.0845980197191238,-0.541864812374115,-0.234527885913849,A
1526528419.85095,0.0551472897159698,1.48067802221225,-0.125371364986059,-0.00300741591490805,-0.351958304643631,-0.215072080492973,A
1526528419.86681,0.13036195864744,1.49915885087801,-0.204878799763833,-0.00207174406386912,-0.155671551823616,-0.0712277665734291,A
1526528419.86811,0.248361887117805,1.51720143379433,-0.328360743508184,-0.00593553343787789,-0.154542550444603,-0.0902711153030396,A
1526528419.88448,0.464370889140021,1.53318316179449,-0.549664712000112,-0.0396686233580112,0.0433448329567909,0.0380777008831501,A
1526528419.89845,0.894690238141799,1.54460448982212,-0.984841509467438,-0.0432548448443413,0.0437091365456581,0.0208435077220201,A
1526528419.9002,1.56808321504126,1.54690350125842,-1.66293287833286,-0.0467176139354706,0.0437667034566402,0.0045203841291368,A
1526528419.91661,2.09714242460792,1.53950963012994,-2.19677707680404,-0.00168747408315539,0.217573970556259,-0.00459150690585375,A
1526528419.93077,2.38481378162772,1.52747470010362,-2.48908080738565,-0.026072483509779,0.372429072856903,-0.00864478852599859,A
1526528419.93197,2.53762858503232,1.51368813247901,-2.64665819083614,-0.028752563521266,0.371737092733383,-0.0241372790187597,A
1526528419.94611,2.62945679208619,1.49889336255677,-2.74315229991232,-0.0474272780120373,0.451197236776352,-0.0466936342418194,A
1526528419.96176,2.69428950756699,1.48347534225251,-2.81268250455177,-0.0565660558640957,0.541890025138855,0.00655976124107838,A
1526528419.96339,2.74448727305135,1.46820506183901,-2.8677799714371,-0.0584522746503353,0.540442228317261,-0.00925236940383911,A
1526528419.97778,2.78364639438968,1.453837632545,-2.9114125189045,-0.0597278885543346,0.538868188858032,-0.0241062566637993,A
1526528419.99428,2.81113654882689,1.44090015978389,-2.94266047447363,-0.11377639323473,0.574339032173157,0.0266776103526354,A
1526528419.9953,2.83133370304281,1.42956239430897,-2.96588677409975,-0.114723078906536,0.572806715965271,0.0151564544066787,A
1526528420.00931,2.84544888333091,1.4195934181859,-2.98248316029324,-0.180692210793495,0.568561911582947,-0.0192230474203825,A
1526528420.02482,2.85253874061277,1.41061822655857,-2.9921541654489,-0.229026287794113,0.548646032810211,-0.100005552172661,A
1526528420.0255,2.85452661996998,1.40194494764117,-2.99716617478646,-0.23114487528801,0.547225594520569,-0.108301639556885,A
1526528420.04059,2.85514461197173,1.39343932018974,-3.00126632528691,-0.162489727139473,0.578643262386322,-0.0992477461695671,A
1526528420.05644,2.8570649435865,1.38547782622051,-3.00714251218225,-0.164362818002701,0.577207446098328,-0.106859244406223,A
1526528420.05715,2.85953886243875,1.37808587419492,-3.01398401057232,-0.165945887565613,0.575818598270416,-0.113960057497025,A
1526528420.07318,2.85970285365257,1.37139716446242,-3.01921486539554,-0.182709559798241,0.583838701248169,-0.0535132214426994,A
1526528420.08914,2.85799465593494,1.3658949877213,-3.02272553256994,-0.19737534224987,0.608857035636902,0.0305939801037312,A
1526528420.09003,2.85461268064645,1.36200678264955,-3.02464543269289,-0.199112787842751,0.608058512210846,0.0271379482001066,A
1526528420.10474,2.84824961172857,1.35972453030744,-3.02373104032949,-0.21602138876915,0.639382243156433,0.0654480829834938,A
1526528420.12158,2.83815652808025,1.35910211797318,-3.01965058697179,-0.218224361538887,0.63925164937973,0.0654889717698097,A
1526528420.12223,2.82425867809029,1.35994504379428,-3.01194384309371,-0.220747783780098,0.639428436756134,0.0671638920903206,A
1526528420.13738,2.80647328573413,1.36217099460098,-2.99964156596384,-0.18830993771553,0.7057945728302,0.0746852979063988,A
1526528420.15315,2.78415995616333,1.36600563406898,-2.98217390765202,-0.157759293913841,0.796837329864502,0.120998822152615,A
1526528420.15404,2.75587594370947,1.37171327490628,-2.95817730049901,-0.161014780402184,0.797982096672058,0.128268003463745,A
1526528420.16816,2.71967591149954,1.37955493699011,-2.92657601360335,-0.14622862637043,0.866153180599213,0.182349607348442,A
1526528420.18475,2.67226122218453,1.38943524091146,-2.88548429703458,-0.154164955019951,0.893450200557709,0.177269354462624,A
1526528420.18558,2.61187003936121,1.40096779316672,-2.83351754117524,-0.157987490296364,0.895464837551117,0.192285150289536,A
1526528420.20064,2.53827906883711,1.41379738521877,-2.7707258937579,-0.161297723650932,0.897552013397217,0.209382846951485,A
1526528420.21785,2.45221406033391,1.4276039604033,-2.69748392511946,-0.138054683804512,0.901569664478302,0.104865126311779,A
1526528420.21972,2.35325746555222,1.44170011356962,-2.61279520571123,-0.138585418462753,0.903482854366302,0.124217368662357,A
1526528420.23146,2.24001519729125,1.45536920677269,-2.51455399490871,-0.172848880290985,0.827238500118256,-0.0241010040044785,A
1526528420.25036,2.10798231505466,1.46769508632326,-2.39679500541684,-0.261060744524002,0.675323307514191,0.0308610275387764,A
1526528420.25155,1.93947423304639,1.47776617964662,-2.24212672614021,-0.259291768074036,0.67630934715271,0.0500485152006149,A
1526528420.26415,1.71972916002881,1.48466060053561,-2.03639503014415,-0.239816293120384,0.529663562774658,0.166113510727882,A
1526528420.28054,1.45108681048072,1.48678007441902,-1.78216575484655,-0.238056257367134,0.529843688011169,0.188900530338287,A
1526528420.28498,1.16541854225121,1.48274713380457,-1.51133235365352,-0.235547989606857,0.529497146606445,0.213557541370392,A
1526528420.29545,0.912902534720859,1.47245951237732,-1.2744240632873,-0.129063129425049,0.32385841012001,0.135531827807426,A
1526528420.31103,0.719459940254682,1.4577149094019,-1.09691528600415,-0.11404762417078,0.0551365427672863,-0.0278270598500967,A
1526528420.31182,0.58122708587225,1.44050256776484,-0.975401932638674,-0.111023649573326,0.0530472062528133,-0.00411111023277044,A
1526528420.32709,0.478962938564487,1.42257191715778,-0.891069637218531,-0.0173710025846958,-0.150811940431595,-0.178872466087341,A
1526528420.34263,0.398168459020718,1.40487028343899,-0.828893146444236,0.0215619783848524,-0.318284332752228,-0.291190415620804,A
1526528420.34352,0.329494699669392,1.38775783303295,-0.778860389076923,0.0267071146517992,-0.321254998445511,-0.271209001541138,A
1526528420.36013,0.272351269913223,1.37209504715675,-0.739183744096488,0.0325028300285339,-0.324226409196854,-0.253315150737762,A
1526528420.37455,0.228948837645555,1.35682903284516,-0.713376898302105,-0.0486793108284473,-0.526359081268311,-0.180928304791451,A
1526528420.37527,0.195718019172221,1.3394572330302,-0.697650982511415,-0.0450767911970615,-0.53019505739212,-0.162822052836418,A
1526528420.39069,0.171702122070115,1.31887407733957,-0.689958988098379,-0.00924905575811863,-0.632868051528931,0.0295819509774446,A
1526528420.40626,0.157880296119594,1.29528168338146,-0.690964682945187,0.0680221691727638,-0.717020690441132,-0.160921931266785,A
1526528420.40705,0.153680469977355,1.26952259867792,-0.698918575872914,0.0653707087039948,-0.72434675693512,-0.136341109871864,A
1526528420.42197,0.15820166303508,1.24266630767631,-0.711757286141647,0.166589662432671,-0.764687597751617,-0.420902103185654,A
1526528420.43815,0.170312861282253,1.21624615860413,-0.72881859216919,0.158519610762596,-0.773531496524811,-0.397005349397659,A
1526528420.43887,0.186207489632067,1.19219447260953,-0.74748077667212,0.148932173848152,-0.782151877880096,-0.375918805599213,A
1526528420.45402,0.201994751281505,1.17253098194018,-0.764978300941616,0.337858706712723,-0.75345104932785,-0.639931917190552,A
1526528420.46971,0.214674306195032,1.15810350106711,-0.779239404323467,0.522789359092712,-0.694719433784485,-0.646855711936951,A
1526528420.47033,0.2223826922845,1.14850698011589,-0.789027369800721,0.517836451530457,-0.698610484600067,-0.638969719409943,A
1526528420.48625,0.225745493036206,1.14245832422178,-0.794062421498913,0.557739913463593,-0.647303700447083,-0.439051240682602,A
1526528420.50163,0.226783116571653,1.13877370952219,-0.795713054999101,0.511233031749725,-0.597082555294037,-0.301821053028107,A
1526528420.50216,0.226605663059417,1.13669779916086,-0.795721375258557,0.510882079601288,-0.597953677177429,-0.299968242645264,A
1526528420.5218,0.225574469866437,1.135674918039,-0.794560756923154,0.511097252368927,-0.598384380340576,-0.298966735601425,A
1526528420.53304,0.223631105395874,1.13523161765217,-0.791696677741557,0.486660212278366,-0.508452892303467,-0.241477072238922,A
1526528420.53369,0.222251245838864,1.13557070217669,-0.788420271779697,0.487295776605606,-0.508309900760651,-0.241648241877556,A
1526528420.55069,0.221890870074236,1.13711971678917,-0.784902349001088,0.451574623584747,-0.421430498361588,-0.303257644176483,A
1526528420.56497,0.223501374501911,1.14038397863611,-0.78188170984529,0.493930011987686,-0.331593185663223,-0.417061239480972,A
1526528420.56605,0.226817891125459,1.14610283589073,-0.778866162546499,0.493751436471939,-0.329221904277802,-0.422440975904465,A
1526528420.58394,0.23097423480684,1.15412246374395,-0.774943887491739,0.529953181743622,-0.273685455322266,-0.368981420993805,A
1526528420.59781,0.235464828593671,1.16404501171422,-0.770286243057486,0.530306398868561,-0.269714683294296,-0.378243863582611,A
1526528420.59917,0.240038931333196,1.17491435842918,-0.765160516977479,0.530926406383514,-0.265468806028366,-0.388388901948929,A
1526528420.61635,0.245372806051096,1.18575819511672,-0.759988451290066,0.497964233160019,-0.249195501208305,-0.245000243186951,A
1526528420.62855,0.25302238951148,1.19594911984193,-0.756361925815059,0.458028733730316,-0.250176787376404,-0.151401787996292,A
1526528420.62913,0.26278639990747,1.20523507903064,-0.754302184106275,0.456820905208588,-0.246817082166672,-0.160673215985298,A
1526528420.64514,0.275035265410353,1.21339667909197,-0.753597157527525,0.451331257820129,-0.213931888341904,-0.188989654183388,A
1526528420.66043,0.291353500174018,1.22064019428834,-0.754500312724475,0.446016490459442,-0.148418873548508,-0.422816604375839,A
1526528420.66107,0.312798270048409,1.22828014002209,-0.75695254330163,0.441204607486725,-0.14582547545433,-0.431842744350433,A
1526528420.67655,0.340253683002444,1.23772458650211,-0.761651720565898,0.435444712638855,-0.142695531249046,-0.443200200796127,A
1526528420.69325,0.371664774384543,1.24883467596524,-0.768331000289543,0.418531030416489,-0.0964274257421494,-0.455008566379547,A
1526528420.69442,0.40552237215693,1.26148298844336,-0.777063354306249,0.413359999656677,-0.092501126229763,-0.470115810632706,A
1526528420.7085,0.439540209270692,1.27532577308271,-0.785933263455307,0.376183360815048,0.0285799000412226,-0.381950348615646,A
1526528420.72525,0.471318526410482,1.29008220341336,-0.792477984547324,0.285613417625427,0.12878081202507,-0.279836237430573,A
1526528420.72647,0.498471924287233,1.30585042633962,-0.795207896573344,0.28621780872345,0.133029639720917,-0.296679615974426,A
1526528420.74124,0.519010612936781,1.32278448293811,-0.792476254461463,0.289645582437515,0.13732536137104,-0.313522040843964,A
1526528420.75671,0.53280927285634,1.34036442302822,-0.783801404000803,0.0810360312461853,0.23531711101532,-0.205269768834114,A
1526528420.7577,0.541351916547613,1.35805208280747,-0.770512244764736,0.0882510170340538,0.239204436540604,-0.221055746078491,A
1526528420.77227,0.547670268345274,1.37577431828221,-0.755973170617824,-0.242537498474121,0.297068178653717,-0.156775191426277,A
1526528420.78768,0.554297432715067,1.39361153070962,-0.742359346755206,-0.541091799736023,0.336547166109085,-0.033817358314991,A
1526528420.7884,0.561129585115213,1.41103512900646,-0.729426922947191,-0.532973051071167,0.339468657970428,-0.0489974208176136,A
1526528420.80349,0.56735778029693,1.42737997754942,-0.715960098037687,-0.821758151054382,0.325442105531693,0.139605730772018,A
1526528420.82187,0.578404624501774,1.44178378485758,-0.707607587106855,-0.815283536911011,0.327398031949997,0.126800894737244,A
1526528420.82268,0.599214169698848,1.45439587295006,-0.709908763062047,-0.810450315475464,0.328941732645035,0.114977635443211,A
1526528420.8361,0.635106756918612,1.46500275458959,-0.728061836851622,-1.05518484115601,0.270623683929443,0.225615680217743,A
1526528420.85376,0.686126030521291,1.47255660899101,-0.762187678457129,-1.16624987125397,0.192718639969826,0.419819563627243,A
1526528420.85465,0.746985963347911,1.47684874058046,-0.807713078555089,-1.16784775257111,0.193130448460579,0.412764847278595,A
1526528420.86925,0.808417842646849,1.47841731070064,-0.855856200032226,-1.17979598045349,0.153222054243088,0.499318182468414,A
1526528420.88619,0.868718911706692,1.47810120719418,-0.905938196074879,-1.21044218540192,0.0920813977718353,0.54393869638443,A
1526528420.88798,0.927993725679709,1.47602564687359,-0.958851223923847,-1.21551322937012,0.0918871313333511,0.540885806083679,A
1526528420.90077,0.980284563668522,1.47187008801746,-1.00864214760141,-1.22181022167206,0.0914852991700172,0.539152324199677,A
1526528420.91688,1.01886448742269,1.46530757842341,-1.04821194819925,-1.17902934551239,0.0807601884007454,0.613466799259186,A
1526528420.92045,1.03885529472525,1.45572478014045,-1.07200612785794,-1.18832349777222,0.0797055438160896,0.616494417190552,A
1526528420.93035,1.04248241853154,1.4429816746626,-1.08180456350483,-1.13767576217651,0.0752015858888626,0.663267552852631,A
1526528420.94606,1.03661723486621,1.42775743293241,-1.08379558302599,-0.927395045757294,0.0975296795368195,0.494086772203445,A
1526528420.94991,1.02682649599391,1.41089363246502,-1.0832717039518,-0.940942943096161,0.0949850901961327,0.503912150859833,A
1526528420.96384,1.01556597993404,1.39272206286391,-1.08353172327054,-0.665723025798798,0.0858406871557236,0.335592597723007,A
1526528420.98036,1.00227192706022,1.37409370659795,-1.08459729486755,-0.679891467094421,0.0823703929781914,0.347438961267471,A
1526528420.98495,0.985835177468272,1.35540558709159,-1.08511443630088,-0.693390905857086,0.0785470083355904,0.360232204198837,A
1526528420.99457,0.965985775529675,1.33685530556339,-1.0845212368792,-0.34292858839035,0.102734737098217,0.144337773323059,A
1526528421.0111,0.943878906787836,1.31838525344934,-1.08253685342399,-0.0567715652287006,0.135198473930359,-0.118031747639179,A
1526528421.01211,0.923634091120698,1.30037632813167,-1.08200601624761,-0.0676434189081192,0.130544155836105,-0.103478565812111,A
1526528421.02657,0.90746591042164,1.28380071734221,-1.08547787825799,0.266044527292252,0.166282504796982,-0.437852084636688,A
1526528421.04145,0.897354552538018,1.27021310417651,-1.09576154056747,0.636802732944489,0.219079986214638,-0.652607500553131,A
