Time,Roll,Pitch,Yaw,AccelX,AccelY,AccelZ,Letter
1525788054.03224,0.0584573566907425,0.122143641041197,-2.11902345100027,0.0157416760921478,0.00559869408607483,0.00119978189468384,N
1525788054.03713,0.0622070136237408,0.125864569387774,-2.11792538511088,0.00674528256058693,-0.0186172723770142,0.0640230774879456,N
1525788054.04692,0.0631190302546725,0.129259011175347,-2.11787247604088,-0.00118006765842438,0.00342634320259094,0.0435159206390381,N
1525788054.0573,0.0630937117822258,0.131943515718552,-2.11817373912388,-0.00438308715820312,0.0128171145915985,0.0655074715614319,N
1525788054.06696,0.0626022737446812,0.133964751586654,-2.11866343887956,0.00895251706242561,-0.000835001468658447,0.0231716632843018,N
1525788054.07756,0.062120882338465,0.135763727145215,-2.11883340649467,0.00561372563242912,0.00178685784339905,0.000438034534454346,N
1525788054.08698,0.0620730067526092,0.137544665873924,-2.11926364661155,0.0141600146889687,0.00931903719902039,-0.0121150612831116,N
1525788054.09697,0.0621280931076255,0.139480116441094,-2.11926540180525,0.0205613486468792,0.00778745114803314,-0.0188243389129639,N
1525788054.11058,0.0622678647676829,0.14163380067175,-2.11933051302849,0.00745675340294838,0.0055406242609024,-0.0157008767127991,N
1525788054.1171,0.0628852687536848,0.144070576643055,-2.11918571177289,-0.0159281045198441,-0.00420866906642914,-0.0103327631950378,N
1525788054.13947,0.0638254094996486,0.146556338891335,-2.11981913627527,-0.0334657579660416,-0.00710494816303253,-0.00956070423126221,N
1525788054.14222,0.0649254785698473,0.148996382955583,-2.12096965764446,-0.0345284715294838,-0.00469149649143219,-0.00998920202255249,N
1525788054.1474,0.0660005094950972,0.150750548100674,-2.12212283580933,-0.0245704501867294,-0.0121733099222183,0.0394693613052368,N
1525788054.15714,0.0669642130048853,0.151714746515302,-2.12335586852047,-0.00996269285678864,-0.0114184617996216,0.0456545352935791,N
1525788054.16699,0.0678187431065679,0.152035804245295,-2.12476065698307,0.0126047879457474,-0.0038684606552124,0.0310686230659485,N
1525788054.17759,0.0684765367826044,0.152140126346626,-2.12565280311681,0.0294437408447266,-0.00370429456233978,0.00377160310745239,N
1525788054.18707,0.0688925669861788,0.152278928252405,-2.1261542523159,0.0370457917451859,-0.00144612789154053,-0.00930863618850708,N
1525788054.19709,0.0690487773631504,0.152504205074403,-2.1265713816889,0.0300276577472687,-0.00561799108982086,-0.00750702619552612,N
1525788054.20784,0.0690841454203699,0.152623705133347,-2.12662946343815,0.00870802998542786,-0.00513367354869843,0.0113322734832764,N
1525788054.21711,0.0691970031358884,0.152334077868985,-2.12704270442925,0.00499263405799866,4.27067279815674e-05,0.0244452357292175,N
1525788054.22689,0.0695484951918906,0.151540194359532,-2.12712494776926,0.0098104327917099,-0.000757277011871338,0.0214587450027466,N
1525788054.23702,0.0700738169233221,0.150470136461221,-2.1274522042932,0.0181159675121307,-0.00463804602622986,0.00128889083862305,N
1525788054.2478,0.0705932041405871,0.149397860438748,-2.12743600468854,0.0184774249792099,-0.00771245360374451,-0.00881081819534302,N
1525788054.25719,0.0709384577619182,0.148366137059697,-2.12779858607033,0.00251628458499908,-0.00728318095207214,-0.0102081894874573,N
1525788054.26708,0.0710943964694219,0.147344096284715,-2.12807198985269,-0.0142803266644478,-0.0134057700634003,-0.00765806436538696,N
1525788054.27756,0.0710716395628123,0.146486281423129,-2.12891128571001,-0.0148313641548157,-0.0104091167449951,-0.0190362930297852,N
1525788054.28699,0.0709239174308519,0.145973534437152,-2.12966520577976,-0.00599338114261627,-0.0134340971708298,-0.029998779296875,N
1525788054.2971,0.0708096265320448,0.145764904476727,-2.13069310523423,0.00336408615112305,-0.0119162648916245,-0.0271071195602417,N
1525788054.30774,0.070822107484047,0.145603998069267,-2.13139570032348,0.00380788743495941,-0.00755886733531952,-0.00808751583099365,N
1525788054.31718,0.0710467450205965,0.145210544256911,-2.13234996681914,0.00046934187412262,0.000917196273803711,0.00428271293640137,N
1525788054.32697,0.0714388612849237,0.144495260642193,-2.13296722752968,0.00144825875759125,-0.00316280126571655,0.010507345199585,N
1525788054.33701,0.0718893164127659,0.143499551642256,-2.13382159241317,0.00236667692661285,-0.00495690107345581,-0.000337839126586914,N
1525788054.3477,0.0723589045002189,0.142502631738037,-2.13431936796132,0.00314407050609589,-0.0075305700302124,-0.0189674496650696,N
1525788054.35727,0.0728079779498012,0.141678856581222,-2.13497460258328,0.0119695737957954,-0.00527903437614441,-0.034828782081604,N
1525788054.367,0.0731279006896714,0.141168291143776,-2.13513476063811,0.0183470547199249,-0.00680683553218842,-0.04269939661026,N
1525788054.37972,0.0733443119051442,0.14095274822522,-2.13546199256536,0.00296391546726227,-0.00749325752258301,-0.0405333638191223,N
1525788054.387,0.0735984624460014,0.140758542512761,-2.1355985680102,-0.00772605836391449,-0.00858581066131592,-0.0280277132987976,N
1525788054.39702,0.0739310930646378,0.140373256471467,-2.13610799042817,-0.0139941573143005,-0.0104016214609146,-0.0234662890434265,N
1525788054.41266,0.0743313718367945,0.139830048733614,-2.13652471415625,-0.0188200995326042,-0.0121449530124664,-0.0215431451797485,N
1525788054.41715,0.0747570632719452,0.139180532600331,-2.13743966314756,-0.0199033319950104,-0.0145276635885239,-0.0258790254592896,N
1525788054.42701,0.0752399437303817,0.138379854999543,-2.13822035411928,-0.00966159999370575,-0.018967479467392,-0.0245989561080933,N
1525788054.43701,0.0758133293228743,0.137481034704114,-2.13927610805512,0.00464007258415222,-0.0280212163925171,-0.0395484566688538,N
1525788054.44854,0.0766263354957984,0.136563928880743,-2.13993746576708,0.0132421553134918,-0.034850150346756,-0.0487774610519409,N
1525788054.45755,0.0774915188129385,0.135631222770717,-2.14068911275225,0.0301237553358078,-0.0346298217773438,-0.0603445172309875,N
1525788054.46701,0.0782386814590126,0.134784062839167,-2.14099989473166,0.0370061695575714,-0.0409624129533768,-0.0805976986885071,N
1525788054.47971,0.0787932193700409,0.134014211291752,-2.14158785576726,0.0283935889601707,-0.0450212061405182,-0.0982229113578796,N
1525788054.48717,0.078990147021792,0.133455143277649,-2.14200782442607,0.0325266495347023,-0.0525943338871002,-0.126575827598572,N
1525788054.49712,0.0786913207174523,0.133366224874731,-2.14277526982495,0.0457451641559601,-0.0619292855262756,-0.159164011478424,N
1525788054.51283,0.0780370728974421,0.133792484453653,-2.14328781139687,0.0535524040460587,-0.0672594010829926,-0.1811882853508,N
1525788054.51722,0.0771772483425647,0.134565065139602,-2.14394881452332,0.0612611472606659,-0.0763814449310303,-0.198849141597748,N
1525788054.52716,0.0763879255015726,0.135522140024833,-2.14404990518177,0.0729914158582687,-0.0858701020479202,-0.228397607803345,N
1525788054.53708,0.0760032572042638,0.136563983658106,-2.14417281577971,0.0775325670838356,-0.0909108817577362,-0.262536585330963,N
1525788054.54901,0.0762478865896,0.137784795614627,-2.14368661720615,0.096941702067852,-0.0937451124191284,-0.319407880306244,N
1525788054.5576,0.077218815404242,0.139237076006168,-2.14321647180981,0.086919292807579,-0.0992037057876587,-0.36736524105072,N
1525788054.56782,0.0788945303076746,0.140947400092443,-2.14223049165084,0.104463964700699,-0.102637112140656,-0.444179236888885,N
1525788054.58,0.0809818870534213,0.143808530354954,-2.1410792362241,0.127827376127243,-0.0949831455945969,-0.528458654880524,N
1525788054.58706,0.0829811969668041,0.148141927749635,-2.13910870041862,0.138251960277557,-0.0843787044286728,-0.571988701820374,N
1525788054.59709,0.0843837416424289,0.153900542494678,-2.13658100706658,0.137049466371536,-0.0752829313278198,-0.614471852779388,N
1525788054.61265,0.0851319665279531,0.161467517543144,-2.13320278318818,0.116455271840096,-0.0832975208759308,-0.670131266117096,N
1525788054.61721,0.0855614357572933,0.171011975669841,-2.12966728149538,0.0855282545089722,-0.0957810431718826,-0.697299420833588,N
1525788054.62726,0.0859034587114889,0.182067921057904,-2.12595241038408,0.0551924258470535,-0.0953340083360672,-0.690748453140259,N
1525788054.63711,0.0863147692780819,0.194146463949017,-2.12248935065888,0.0409613028168678,-0.0830718725919724,-0.669153451919556,N
1525788054.64828,0.0867297652747415,0.207217053341277,-2.11872610466771,0.0362036675214767,-0.0651519894599915,-0.675797402858734,N
1525788054.65755,0.0871452613572124,0.221949436076786,-2.11479573467042,0.0239714086055756,-0.0545723289251328,-0.703066766262054,N
1525788054.66709,0.0877666894805767,0.238664286757843,-2.11038214908658,-0.0157419592142105,-0.0460504591464996,-0.698360443115234,N
1525788054.68003,0.088822532468893,0.256993000269355,-2.10595543549047,-0.0622024685144424,-0.0480116009712219,-0.658037781715393,N
1525788054.68708,0.0902639245134182,0.276697309804687,-2.10213264455789,-0.14796145260334,-0.00529283285140991,-0.621939957141876,N
1525788054.69715,0.0918972164926702,0.297899783067658,-2.09938178648753,-0.187625288963318,0.00504574179649353,-0.589933693408966,N
1525788054.7127,0.0935437366229101,0.32079796634739,-2.09774062597867,-0.204853028059006,0.0191050469875336,-0.549961805343628,N
1525788054.71723,0.0950282124562276,0.346052372415692,-2.09734107054265,-0.219921365380287,0.0348960757255554,-0.521945297718048,N
1525788054.72709,0.0964454134082352,0.372925838115715,-2.09823461606064,-0.237168520689011,0.0687484741210938,-0.431842625141144,N
1525788054.73721,0.0980994145709498,0.4015094206739,-2.10005674046453,-0.224445596337318,0.103698790073395,-0.376189947128296,N
1525788054.74798,0.100367933760498,0.43081544214886,-2.10273337419693,-0.226816490292549,0.14382341504097,-0.253158867359161,N
1525788054.75761,0.103858568000096,0.459128252685492,-2.10629116503749,-0.221796035766602,0.182394087314606,-0.102364361286163,N
1525788054.76807,0.109119322709535,0.486048403693128,-2.11048408130863,-0.195045232772827,0.235675036907196,-0.0361278057098389,N
1525788054.78233,0.116097724434993,0.511848869919611,-2.11517614587331,-0.166222736239433,0.262128859758377,0.0471538305282593,N
1525788054.78712,0.12391525401971,0.535994197456444,-2.12009948825604,-0.135439857840538,0.284576058387756,0.124301910400391,N
1525788054.79716,0.131832322039243,0.558728555439765,-2.12496308041543,-0.128535553812981,0.295230031013489,0.153224110603333,N
1525788054.81276,0.139683835170803,0.58065706819619,-2.12986858809161,-0.132600054144859,0.299199044704437,0.163910984992981,N
1525788054.81721,0.147283369877854,0.602320616333743,-2.13511449874358,-0.132034912705421,0.325116395950317,0.170859813690186,N
1525788054.82712,0.154593515015885,0.624664838953523,-2.14127217564019,-0.126518398523331,0.364259600639343,0.177034258842468,N
1525788054.83703,0.161345716323914,0.647394615154406,-2.14856017276673,-0.105039089918137,0.390372216701508,0.24132251739502,N
1525788054.8486,0.1672913368836,0.67021561834365,-2.15639501643857,-0.0742647647857666,0.410843074321747,0.300807237625122,N
1525788054.85759,0.17216292344556,0.692670136211166,-2.16461326271371,-0.0869418829679489,0.40826278924942,0.360552847385406,N
1525788054.86727,0.176059583166818,0.714113236174912,-2.17303096000662,-0.112490370869637,0.397898018360138,0.40536892414093,N
1525788054.87969,0.179062381596696,0.734303229130047,-2.18191836099302,-0.108145207166672,0.373179852962494,0.422414541244507,N
1525788054.88718,0.181019825496727,0.753814404500993,-2.19059163305666,-0.0789516866207123,0.371695876121521,0.41541200876236,N
1525788054.89725,0.181743732996464,0.773034754331273,-2.19866823308363,-0.0674406290054321,0.363792300224304,0.429651618003845,N
1525788054.91282,0.182214170008467,0.791265855745188,-2.20637542228425,-0.0991500914096832,0.357483923435211,0.501350522041321,N
1525788054.91714,0.183270558263295,0.807345946710609,-2.21409126816342,-0.105332612991333,0.36680281162262,0.573179125785828,N
1525788054.92717,0.184600926787454,0.821062316241185,-2.2211794301471,-0.0932061672210693,0.383878231048584,0.615558981895447,N
1525788054.93718,0.185215789348344,0.832636928122372,-2.22786105790105,-0.0950555801391602,0.404518604278564,0.662820875644684,N
1525788054.94843,0.184100457673972,0.842083458267527,-2.23388402636595,-0.0983584523200989,0.423735976219177,0.686363577842712,N
1525788054.95763,0.181418761937125,0.849628500810702,-2.23962441888362,-0.108019351959229,0.420789241790771,0.69655966758728,N
1525788054.96719,0.17770409281203,0.85539548440522,-2.24504811739114,-0.103404253721237,0.429589331150055,0.711751580238342,N
1525788054.98228,0.172938874350991,0.859368797027578,-2.2498187601844,-0.0693072378635406,0.449492990970612,0.744188249111176,N
1525788054.98716,0.167173741913923,0.861098552665546,-2.25316700031934,-0.0429640710353851,0.48208487033844,0.814241647720337,N
1525788054.9974,0.160736476130909,0.859612500747917,-2.2553601444574,-0.0213211476802826,0.506506264209747,0.893034160137177,N
1525788055.01027,0.153936329092455,0.854529129322072,-2.25609083785829,-0.0018099844455719,0.519947826862335,0.924550235271454,N
1525788055.01733,0.14693875668124,0.846304488875707,-2.25595480853281,0.0110896229743958,0.51223349571228,0.915438592433929,N
1525788055.02719,0.13960717414801,0.835575274749533,-2.25498302194116,0.033234030008316,0.50100564956665,0.899056792259216,N
1525788055.03738,0.131596687723668,0.822540789161377,-2.2535659046902,0.0416454374790192,0.483212530612946,0.878716468811035,N
1525788055.04826,0.122997130099076,0.807060855932422,-2.25175986183846,0.00822526216506958,0.464216113090515,0.839245557785034,N
1525788055.0574,0.114153037460632,0.78958500433758,-2.25042371549555,-0.0258838534355164,0.44997501373291,0.763124465942383,N
1525788055.06735,0.104611609202201,0.770759763647955,-2.24924369292972,-0.0486186444759369,0.432993352413177,0.672366976737976,N
1525788055.07799,0.094254596596197,0.750880313258014,-2.24840404514529,-0.0809371173381805,0.414689183235168,0.609693884849548,N
1525788055.08835,0.0840084154852273,0.72950656701381,-2.24803966534828,-0.115121364593506,0.39317113161087,0.566436052322388,N
1525788055.09732,0.0751633457225419,0.706096128913641,-2.24854553372408,-0.129342541098595,0.356357276439667,0.522301435470581,N
1525788055.10807,0.0682506588165031,0.680345992861829,-2.24968061288415,-0.133961632847786,0.327823042869568,0.434831142425537,N
1525788055.11746,0.0633334161886483,0.653150602460999,-2.25160113736642,-0.124116599559784,0.311426877975464,0.316567182540894,N
1525788055.12743,0.0600644494601585,0.625579130152816,-2.2542936452586,-0.117370739579201,0.304164230823517,0.213855445384979,N
1525788055.13727,0.0573269566082924,0.598191114842857,-2.2577102437298,-0.101484671235085,0.290657162666321,0.134278118610382,N
1525788055.1481,0.0539019046629727,0.571609134970631,-2.26110042880702,-0.0785601437091827,0.272034645080566,0.055797815322876,N
1525788055.15732,0.0495987507820881,0.546315032593648,-2.2642356443373,-0.0743749439716339,0.249659955501556,0.00183117389678955,N
1525788055.16739,0.0451494489169058,0.522209286932678,-2.26739218756198,-0.101511791348457,0.255815237760544,0.0201021432876587,N
1525788055.17801,0.0416558391086479,0.497917894242456,-2.27138898156297,-0.125897035002708,0.283658057451248,0.101723909378052,N
1525788055.18734,0.0393952939337318,0.47231914128913,-2.27596979688961,-0.0642936229705811,0.28719761967659,0.163490772247314,N
1525788055.19735,0.0377477853239366,0.445064871487239,-2.28060428219174,0.0119733661413193,0.303364932537079,0.188209712505341,N
1525788055.20895,0.0349284892623307,0.416082142428527,-2.28489826328642,0.0926614105701447,0.310414731502533,0.154340505599976,N
1525788055.21749,0.0294221298624561,0.385575050900489,-2.28731819605328,0.162698581814766,0.265969336032867,0.0552857518196106,N
1525788055.22737,0.0221393099727821,0.354502019376759,-2.28792159471806,0.120169192552567,0.215119600296021,-0.0714284181594849,N
1525788055.23745,0.0149122714532499,0.32357603968106,-2.28792803035922,0.045310378074646,0.176006525754929,-0.167876303195953,N
1525788055.24765,0.00892124726549444,0.293004131093147,-2.28831868382232,-0.0237997025251389,0.148998081684113,-0.20948201417923,N
1525788055.25765,0.00527544094430288,0.262912366073807,-2.28965647049301,-0.0983406007289886,0.133810549974442,-0.229612529277802,N
1525788055.26727,0.0043776465989232,0.233201585226697,-2.29299288535362,-0.130205184221268,0.157485216856003,-0.225503146648407,N
1525788055.27991,0.00547379993955948,0.203676048557243,-2.29814106196008,-0.0698442682623863,0.156006097793579,-0.179345965385437,N
1525788055.28745,0.00679439468640557,0.173777913813608,-2.3048057290699,0.00652210414409637,0.193442910909653,-0.145165383815765,N
1525788055.29743,0.00517769694573725,0.143536552048184,-2.3115496759395,0.137392669916153,0.20835180580616,-0.199216067790985,N
1525788055.30796,-0.000606512539613985,0.113484442146988,-2.31662861902653,0.221549868583679,0.175573170185089,-0.315316319465637,N
1525788055.31756,-0.00843157598040165,0.0842035901451685,-2.31972286192725,0.16436168551445,0.136548578739166,-0.445610284805298,N
1525788055.32745,-0.0152264255913176,0.0557004367592718,-2.32247281599519,0.0389296412467957,0.10659021884203,-0.57084995508194,N
1525788055.33734,-0.019431862237938,0.0284082588032905,-2.32540751402416,-0.0144974887371063,0.0619890317320824,-0.684918403625488,N
1525788055.34864,-0.0209467899981454,0.00335840196741854,-2.32908311678791,-0.0607961937785149,0.041261225938797,-0.77209085226059,N
1525788055.35765,-0.0206729121135227,-0.0183883809732571,-2.33352477098767,-0.0738602578639984,0.0282282568514347,-0.783524811267853,N
1525788055.3673,-0.0196883295335201,-0.0373616886549752,-2.3388168152048,-0.0580854713916779,0.0194707326591015,-0.677679896354675,N
1525788055.37983,-0.0186847062352723,-0.0550531647985504,-2.34439352108463,-0.0203308947384357,0.0241982750594616,-0.573726058006287,N
1525788055.38739,-0.018343965472044,-0.0717384394404564,-2.34997020798604,0.0547947809100151,0.0232174843549728,-0.527108192443848,N
1525788055.39744,-0.0189544714746191,-0.0872328384955329,-2.35470221356921,0.12175602465868,0.0170800238847733,-0.524458646774292,N
1525788055.41277,-0.0204582914326573,-0.101355989678847,-2.35854151892719,0.183819279074669,-0.0105453282594681,-0.544585943222046,N
1525788055.41765,-0.0222614864394721,-0.113974376536253,-2.36112643217897,0.21759557723999,-0.0354196727275848,-0.563573241233826,N
1525788055.42729,-0.0237456144421611,-0.125222035854239,-2.36289336394414,0.213437840342522,-0.0534228682518005,-0.565498054027557,N
1525788055.4374,-0.0242115067379356,-0.135626096468636,-2.36367486273455,0.173187270760536,-0.0744196623563766,-0.557798147201538,N
1525788055.44938,-0.0235773444615314,-0.145495981352634,-2.36416155601014,0.101634174585342,-0.0964602380990982,-0.570441722869873,N
1525788055.45772,-0.0224707910843594,-0.154709598898221,-2.36499932286644,0.032256081700325,-0.116571813821793,-0.614228665828705,N
1525788055.46737,-0.0214484206955062,-0.162842912692992,-2.36606674835983,-0.00241178646683693,-0.129699230194092,-0.687086403369904,N
1525788055.47988,-0.0208525640428123,-0.169111723087692,-2.36746762642289,-0.00801084563136101,-0.146624073386192,-0.764739096164703,N
1525788055.48742,-0.0208314553051543,-0.173008713442846,-2.36896356242302,-0.0126688852906227,-0.150555729866028,-0.817205429077148,N
1525788055.49755,-0.0211935887460284,-0.174423117189075,-2.37064604788177,-0.0118138752877712,-0.152696534991264,-0.818906962871552,N
1525788055.51288,-0.02178196798862,-0.173748934644937,-2.37221405242407,-0.0204635821282864,-0.158914253115654,-0.78770524263382,N
1525788055.51753,-0.0227477948032211,-0.171298630455674,-2.37401303170806,-0.0309928320348263,-0.164816364645958,-0.752821028232574,N
1525788055.5274,-0.0241828929067599,-0.167166212006061,-2.37567034456737,-0.0314543880522251,-0.171515703201294,-0.722357988357544,N
1525788055.53741,-0.0260040322621273,-0.161504419867245,-2.37722522573653,-0.0270563811063766,-0.178472906351089,-0.697673380374908,N
1525788055.5486,-0.0278919578704635,-0.154436778364315,-2.3784191403613,-0.0404672585427761,-0.183273077011108,-0.668032467365265,N
1525788055.5578,-0.0292472662670406,-0.14634960861387,-2.3797311741101,-0.0688325762748718,-0.176543682813644,-0.636937081813812,N
1525788055.56754,-0.0298092427906685,-0.137655532493857,-2.38113821083596,-0.0927000120282173,-0.167815074324608,-0.616665422916412,N
1525788055.57898,-0.0299786154097691,-0.128237674826884,-2.38301429936137,-0.0927237868309021,-0.150057509541512,-0.633290648460388,N
1525788055.58742,-0.0304123832917368,-0.117699051305538,-2.38511766558103,-0.0774992182850838,-0.120219849050045,-0.655769467353821,N
1525788055.5975,-0.0314926960688256,-0.105670099439861,-2.38755774423704,-0.058837067335844,-0.0824938118457794,-0.669431567192078,N
1525788055.61419,-0.033011135630359,-0.0921958934991559,-2.39001952047342,-0.0553155764937401,-0.0551848486065865,-0.669920146465302,N
1525788055.61795,-0.0345793413357167,-0.0772484158455219,-2.39280813196713,-0.0521242767572403,-0.0195849388837814,-0.676628112792969,N
1525788055.62744,-0.0361917769342906,-0.0604987726059126,-2.39548133824633,-0.0317534171044827,0.00608170405030251,-0.686702489852905,N
1525788055.63789,-0.0380742815855469,-0.0416521869555651,-2.39813082059886,-0.0164418071508408,0.0272227711975574,-0.66728663444519,N
1525788055.64866,-0.0407840881063734,-0.0209533796477365,-2.40048109610445,-0.015174888074398,0.0516494736075401,-0.616544663906097,N
1525788055.65778,-0.044114952136335,0.00120102905370973,-2.40292908161602,-0.0339328348636627,0.076381079852581,-0.558117806911469,N
1525788055.66749,-0.0471296272842207,0.0240476491033194,-2.40531545375257,-0.0432945042848587,0.0927709192037582,-0.497492969036102,N
1525788055.6787,-0.0491850337492135,0.0470006789984366,-2.40770507162793,-0.0433573499321938,0.124772682785988,-0.456795394420624,N
1525788055.68763,-0.0503496058444349,0.070032618716706,-2.40970347198366,-0.0299494527280331,0.158323764801025,-0.447791993618011,N
1525788055.69767,-0.0507409162657259,0.0936072458786656,-2.41143817189835,-0.030054047703743,0.187876731157303,-0.456861793994904,N
1525788055.70803,-0.0501916940252498,0.117895879923682,-2.41319896634236,-0.0538306012749672,0.219673737883568,-0.449156045913696,N
1525788055.7177,-0.0486428985405318,0.143092935439772,-2.41562408376985,-0.0673670023679733,0.263119041919708,-0.427818715572357,N
1525788055.72848,-0.0466147792073601,0.169300877084436,-2.41852818645967,-0.0440036244690418,0.301839828491211,-0.409700870513916,N
1525788055.7376,-0.0448386172670751,0.196900473599059,-2.42201398568711,0.010327123105526,0.339383691549301,-0.3894944190979,N
1525788055.74819,-0.0439872058817531,0.226293730644958,-2.42527100467166,0.0761313289403915,0.381761729717255,-0.362726449966431,N
1525788055.7575,-0.0442329749111727,0.257562052597272,-2.42807866927719,0.110570013523102,0.410195589065552,-0.326366722583771,N
1525788055.76748,-0.0452972782454856,0.290744251411636,-2.43036728107904,0.114533081650734,0.432249426841736,-0.279402136802673,N
1525788055.77809,-0.0461302062414339,0.325230973228732,-2.43238024928479,0.0786085277795792,0.44483283162117,-0.216272950172424,N
1525788055.78754,-0.0457160154750699,0.360480124745673,-2.43450202636549,0.0549240857362747,0.453202664852142,-0.141010046005249,N
1525788055.79761,-0.0436631280037595,0.395871117008925,-2.4368301195349,0.0672357454895973,0.464576303958893,-0.0457324981689453,N
1525788055.80779,-0.0402644217548701,0.430750161102232,-2.43905835778677,0.0778057426214218,0.476222604513168,0.0510741472244263,N
1525788055.81776,-0.0360711798912506,0.464957764766364,-2.4413886160599,0.0658042132854462,0.493734180927277,0.1276034116745,N
1525788055.82753,-0.031652280412624,0.498688506673717,-2.4439647792089,0.0604160130023956,0.489352077245712,0.210885167121887,N
1525788055.83759,-0.0275480491388178,0.531257374771633,-2.44685459520058,0.0428673774003983,0.483866989612579,0.284466147422791,N
1525788055.84814,-0.0239661412071189,0.562446065225087,-2.45003398361165,0.0152521431446075,0.460289537906647,0.318473279476166,N
1525788055.85762,-0.0207600404024255,0.592305175845494,-2.45368399849844,-0.00487227737903595,0.442308247089386,0.335153341293335,N
1525788055.86764,-0.0178833780391596,0.62076489162347,-2.45829626003065,-0.0124618858098984,0.429405331611633,0.371332764625549,N
1525788055.87922,-0.0147410682056947,0.647655771049404,-2.46377626051955,0.0120455026626587,0.42114382982254,0.409840226173401,N
1525788055.88761,-0.0110381714248332,0.673127175240875,-2.47044263452757,0.0398650467395782,0.431768417358398,0.399061322212219,N
1525788055.89836,-0.00710044796143318,0.698309680813445,-2.47851828654349,0.0628419667482376,0.427317261695862,0.381358504295349,N
1525788055.91748,-0.00455593887511727,0.72320420530836,-2.48722676792254,0.125073850154877,0.41732919216156,0.397050440311432,N
1525788055.91858,-0.00420557293748311,0.746877911991774,-2.49445678528796,0.209430694580078,0.392134845256805,0.452846646308899,N
1525788055.92794,-0.00479166533367283,0.768744637435719,-2.50029802626986,0.184688046574593,0.409680485725403,0.468302488327026,N
1525788055.9377,-0.00437435924687648,0.78909510917654,-2.50560398551384,0.15110719203949,0.416350603103638,0.453931570053101,N
1525788055.9484,-0.00227765557338197,0.807630709613421,-2.51030725583156,0.169878780841827,0.395380973815918,0.407122373580933,N
1525788055.95755,0.0018458367056532,0.824850768203731,-2.51379480721776,0.163450658321381,0.373026788234711,0.32424920797348,N
1525788055.96773,0.00750730509978457,0.841828386195808,-2.51627757128861,0.0962415039539337,0.371381044387817,0.292255997657776,N
1525788055.97924,0.0138771652651009,0.858654494048405,-2.51803460746745,0.00606890022754669,0.364706337451935,0.323177933692932,N
1525788055.9876,0.0196415601339577,0.875150771402451,-2.51977721471216,-0.0446000248193741,0.369492530822754,0.379221558570862,N
0,0,0,0,0,0,0,0
1525788057.85219,0.12232312785771,-0.0722995315931132,-1.97062721978345,0.0739486664533615,0.030485600233078,0.0774288177490234,N
1525788057.86109,0.120951757455652,-0.0715149028804533,-1.97054834972986,0.118375092744827,0.0315886437892914,0.0882250666618347,N
1525788057.86821,0.119895454374632,-0.0718145926208311,-1.96943690043057,0.105339780449867,0.0315186083316803,0.0492678284645081,N
1525788057.87874,0.120586334429073,-0.0719557113593794,-1.96698835903275,0.0441557765007019,0.0395718216896057,-0.00642794370651245,N
1525788057.88831,0.121700831759731,-0.0711140678173004,-1.96449864566855,-0.0139923393726349,0.0131896287202835,-0.0642418265342712,N
1525788057.89842,0.122145308710041,-0.0695379228997274,-1.96257637921204,-0.0810505151748657,-0.00505928695201874,-0.0345684885978699,N
1525788057.90929,0.121212884615263,-0.0684001119923652,-1.96253741126572,-0.0883764550089836,0.0117618590593338,0.0117037892341614,N
1525788057.91851,0.11923081103335,-0.0681176342674092,-1.96319605267139,-0.0236104056239128,-0.000956818461418152,0.0425081849098206,N
1525788057.92836,0.116981593308987,-0.0687500288945382,-1.9642259602195,0.0226293653249741,-3.13371419906616e-05,0.0564930438995361,N
1525788057.93837,0.115387385343601,-0.0703125932309451,-1.96451786267306,0.0262815207242966,-0.00651870667934418,0.0495657920837402,N
1525788057.94862,0.114948202903147,-0.0726158807197808,-1.9646830564829,-0.0198647677898407,-0.0278438329696655,0.0123586654663086,N
1525788057.95847,0.115620749638932,-0.0751677320720186,-1.96561055209792,-0.0721450969576836,-0.0521477460861206,-0.030218243598938,N
1525788057.9692,0.115889252832405,-0.0774692571759007,-1.96729616118875,-0.0948669612407684,-0.0715018957853317,-0.0639012455940247,N
1525788057.97897,0.114619046247556,-0.0791644133724192,-1.97039416514291,-0.0840570479631424,-0.0845138803124428,-0.080702543258667,N
1525788057.98832,0.112027615167403,-0.0802968439357898,-1.97415380512024,-0.0704481154680252,-0.0920056253671646,-0.0831703543663025,N
1525788057.99842,0.109223376902522,-0.0812263693020361,-1.97863127336322,-0.0372968390583992,-0.0818847566843033,-0.0724382400512695,N
1525788058.00911,0.106610403058386,-0.0819522841292545,-1.98248261461191,0.0265474393963814,-0.0762300938367844,-0.102566301822662,N
1525788058.01862,0.104109614247545,-0.0821521170913359,-1.98575284267596,0.060018315911293,-0.0754221677780151,-0.133692562580109,N
1525788058.02839,0.101961172761792,-0.0820630912990137,-1.98786526637475,0.0606673136353493,-0.074845165014267,-0.133007287979126,N
1525788058.03843,0.0999152550411339,-0.0820681946143137,-1.98956905021066,0.0432257950305939,-0.0819455832242966,-0.137028932571411,N
1525788058.04861,0.0975953527658439,-0.0823694639866198,-1.99087962976964,0.00654282420873642,-0.0831155851483345,-0.159759521484375,N
1525788058.05844,0.0950061970078094,-0.0826939209583802,-1.99261763677824,0.0142102241516113,-0.0988808274269104,-0.207389652729034,N
1525788058.06833,0.0920492848003992,-0.0827554526880846,-1.99392902932069,0.044488362967968,-0.105961196124554,-0.274120807647705,N
1525788058.07873,0.0886524221276432,-0.0823274837771856,-1.99503096354788,0.0677999034523964,-0.115559712052345,-0.351401686668396,N
1525788058.08844,0.0853555271396333,-0.0813011228735427,-1.99510833568442,0.0583859980106354,-0.115345500409603,-0.437382102012634,N
1525788058.09847,0.0824616716467246,-0.0796266640706828,-1.99474687007987,0.0349734276533127,-0.111082464456558,-0.527780771255493,N
1525788058.10931,0.0797385920542354,-0.0767446999868367,-1.99353447557086,0.0269340947270393,-0.104577712714672,-0.6458820104599,N
1525788058.11862,0.0770241255423093,-0.0719396488875734,-1.99221344463515,0.0131405666470528,-0.0920955091714859,-0.740086615085602,N
1525788058.12837,0.0740372421090746,-0.0651957351998676,-1.99047013392083,-0.0121822208166122,-0.0749762132763863,-0.794653117656708,N
1525788058.13855,0.0705843533958162,-0.0565012436781447,-1.98914645477249,-0.0271087735891342,-0.0591567307710648,-0.861106991767883,N
1525788058.14883,0.0671377827320212,-0.0456440527000208,-1.98791210084075,-0.0417947024106979,-0.0359541326761246,-0.910274505615234,N
1525788058.16049,0.0643422493075527,-0.032736638457242,-1.98713436078528,-0.0320063307881355,-0.0108039118349552,-0.93978351354599,N
1525788058.16925,0.0622366813203246,-0.01762209066602,-1.98593620103839,-0.00865902006626129,0.0162838492542505,-0.97456419467926,N
1525788058.17952,0.0607339622657569,-0.000161880241621032,-1.98462038436981,0.0188169181346893,0.0402891710400581,-0.981427490711212,N
1525788058.18842,0.0598615558713354,0.0193080781846456,-1.98257012056272,0.0548093616962433,0.0712325349450111,-0.943658113479614,N
1525788058.19859,0.0594367049835298,0.0404674345603143,-1.97995732925323,0.0831640064716339,0.11244735121727,-0.897526323795319,N
1525788058.20921,0.0590344608917219,0.0635021535459165,-1.97622799070188,0.0907159075140953,0.138349622488022,-0.865158498287201,N
1525788058.21859,0.0582222263185915,0.0886448436730869,-1.97197474053901,0.0665966272354126,0.148694202303886,-0.841536402702332,N
1525788058.22843,0.0569793048298255,0.115937432226955,-1.96746318392119,-0.00226014107465744,0.171128317713737,-0.782113671302795,N
1525788058.23847,0.055642857822448,0.144877579717251,-1.96372349022536,-0.0696799457073212,0.193336755037308,-0.695098102092743,N
1525788058.249,0.0544446812364977,0.174737944146037,-1.96076691644614,-0.0956881195306778,0.201300635933876,-0.59208071231842,N
1525788058.25859,0.0529225843244259,0.205328392016051,-1.95884654085131,-0.0895369574427605,0.211151838302612,-0.50972706079483,N
1525788058.26845,0.0506658866973299,0.236486137843567,-1.95738560871589,-0.0677130371332169,0.229801937937737,-0.447934031486511,N
1525788058.27856,0.0478584178035735,0.26801969815678,-1.95625087286444,-0.0530290976166725,0.256567358970642,-0.394915401935577,N
1525788058.2894,0.0447747206069807,0.299902169365478,-1.95502182041163,-0.038886196911335,0.278825163841248,-0.372450590133667,N
1525788058.29863,0.0417028266739939,0.332238865947784,-1.95365408065273,-0.0540135204792023,0.272891819477081,-0.353679418563843,N
1525788058.30958,0.0390378992599291,0.364825454348519,-1.95232831895006,-0.109045445919037,0.274144649505615,-0.339734315872192,N
1525788058.31861,0.0375717850014543,0.398025663387099,-1.95158411387522,-0.172459214925766,0.293116688728333,-0.332698285579681,N
1525788058.32846,0.037842795605575,0.43205745942691,-1.95207283810386,-0.212518692016602,0.322899639606476,-0.293029308319092,N
1525788058.33849,0.0396524007080276,0.466774488171696,-1.95426075208382,-0.230256006121635,0.380489140748978,-0.201808989048004,N
1525788058.34891,0.0423578168793963,0.50164481191625,-1.9583338550051,-0.230105832219124,0.445101737976074,-0.0958564281463623,N
1525788058.35863,0.0454410852728531,0.536279635023571,-1.96389633732926,-0.199937075376511,0.492966592311859,-0.00214219093322754,N
1525788058.36848,0.0485815347091553,0.570675536952481,-1.97049526920085,-0.167774394154549,0.536920011043549,0.0614448189735413,N
1525788058.37908,0.0516660302087933,0.605405776850325,-1.97780878058072,-0.144912093877792,0.576557338237762,0.122718155384064,N
1525788058.38851,0.0552354710662014,0.640560069598761,-1.98587257345184,-0.122266054153442,0.625385046005249,0.218522310256958,N
1525788058.39885,0.0595149576821935,0.675659620004369,-1.99455114830678,-0.106836587190628,0.682174861431122,0.381940245628357,N
1525788058.41161,0.0645486107830241,0.709208905531245,-2.00394575072223,-0.106704950332642,0.739795684814453,0.596789538860321,N
1525788058.41872,0.0708602017872502,0.739195573368639,-2.01418618018136,-0.0992586612701416,0.779849052429199,0.806263089179993,N
1525788058.42851,0.0783899005370353,0.764410738228774,-2.02517407728215,-0.0505111515522003,0.793872654438019,0.942428112030029,N
1525788058.43866,0.0858823092707463,0.784852021134819,-2.03548400847666,0.0527321398258209,0.787958264350891,0.965047419071198,N
1525788058.44944,0.0912391658058605,0.802026892820747,-2.04373094579561,0.141899824142456,0.755494654178619,0.903342366218567,N
1525788058.4589,0.0935326387058217,0.817438678728939,-2.04909830621428,0.157315075397491,0.706324756145477,0.853540658950806,N
1525788058.46867,0.0934627848172411,0.831688044110328,-2.05243122237976,0.102293521165848,0.677958130836487,0.851108551025391,N
1525788058.47938,0.0918577164748509,0.844264692955259,-2.05447130836391,0.012857973575592,0.64729368686676,0.912883877754211,N
1525788058.48863,0.0899059849057875,0.854370771668978,-2.05665350947985,-0.0913860499858856,0.612907230854034,0.972506642341614,N
1525788058.49868,0.088470510258226,0.861847718879662,-2.05992008245792,-0.137341052293777,0.593748331069946,0.984991490840912,N
1525788058.50946,0.0870667749558242,0.867039558717372,-2.06382641497143,-0.112680286169052,0.57149863243103,0.983959794044495,N
1525788058.51873,0.0854110987163359,0.869960817369129,-2.06729852656417,-0.0920592546463013,0.561514377593994,0.994967997074127,N
1525788058.52853,0.0839480331817693,0.870526557987965,-2.070586817021,-0.0944703221321106,0.550251841545105,1.00926518440247,N
1525788058.53866,0.0823843043731263,0.86855579981769,-2.07362907506871,-0.113319635391235,0.516219735145569,1.04119920730591,N
1525788058.54992,0.0807374823686194,0.863734716124781,-2.07726379059416,-0.139289051294327,0.473607063293457,1.05349171161652,N
1525788058.55993,0.0791644865457732,0.856304434887192,-2.08161248476809,-0.125669538974762,0.434076189994812,1.01917827129364,N
1525788058.56852,0.0775447612564103,0.846990405154042,-2.08651224710465,-0.0847948789596558,0.41489440202713,0.971484005451202,N
1525788058.58008,0.0757044098510577,0.836057246104675,-2.09140221835072,-0.043348491191864,0.410386443138123,0.95680296421051,N
1525788058.58856,0.073261692150797,0.823076250078951,-2.09587339933051,-0.0121428966522217,0.405909538269043,0.950925648212433,N
1525788058.59854,0.0698590280098532,0.807698464169087,-2.09972592095464,0.00664114952087402,0.402889430522919,0.917397737503052,N
1525788058.61522,0.0655025613527344,0.790172502669794,-2.102546138039,-0.0118982195854187,0.408762633800507,0.860095858573914,N
1525788058.61875,0.0605840331462389,0.770659411798926,-2.10464993804214,-0.0560890138149261,0.407378137111664,0.802057027816772,N
1525788058.62863,0.0558585172032997,0.74917848886891,-2.10660762716768,-0.112872004508972,0.402259349822998,0.732158958911896,N
1525788058.63862,0.0513147017401908,0.725815108439715,-2.10906112580338,-0.133976012468338,0.366824567317963,0.659647703170776,N
1525788058.64975,0.0463859115449888,0.70042899010944,-2.11220885230095,-0.146200627088547,0.323775470256805,0.574808716773987,N
1525788058.65933,0.0413900563063207,0.673643749564521,-2.11653650091874,-0.153341501951218,0.285718381404877,0.474792778491974,N
1525788058.66853,0.0373506667125791,0.646063336938286,-2.12216741426358,-0.160034567117691,0.263592600822449,0.402837574481964,N
1525788058.68,0.0348098517776656,0.617920898599036,-2.12903049944362,-0.147492617368698,0.27297580242157,0.361450433731079,N
1525788058.68866,0.033260069188163,0.589688153849885,-2.13671879936762,-0.119816139340401,0.285380423069,0.338024258613586,N
1525788058.69859,0.0321644269182192,0.561344424901706,-2.14519722485415,-0.0945608168840408,0.304450035095215,0.374376714229584,N
1525788058.71306,0.0311245408199206,0.531313324011458,-2.15384118562465,-0.0491378009319305,0.291288256645203,0.434432804584503,N
1525788058.71869,0.0304001783420888,0.498605983637129,-2.16243534006634,-0.028968408703804,0.273581326007843,0.41548752784729,N
1525788058.72859,0.0301840600510563,0.463243785756371,-2.17098405049063,-0.0147612392902374,0.264219909906387,0.322193920612335,N
1525788058.7388,0.0310347466573042,0.425912217999317,-2.17969998142448,-0.0380690395832062,0.248143136501312,0.193014800548553,N
1525788058.74992,0.0332628436737959,0.387955977381604,-2.18914537356179,-0.070381760597229,0.256242036819458,0.0543988347053528,N
1525788058.75933,0.0363106724136534,0.350458273836867,-2.19978744831395,-0.0681078881025314,0.277410298585892,-0.0478538274765015,N
1525788058.7686,0.0387697652235396,0.313832627597481,-2.21125998121477,-0.00818038731813431,0.275686323642731,-0.0835844874382019,N
1525788058.77998,0.0394595418941571,0.277676177036362,-2.22266042506898,0.0566357746720314,0.289593994617462,-0.120718598365784,N
1525788058.78862,0.0384475835109533,0.241928995779659,-2.23313598686675,0.0786633566021919,0.297269374132156,-0.190179228782654,N
1525788058.79878,0.0366597458697682,0.206631926985852,-2.24241287744412,0.0538955926895142,0.265894621610641,-0.278171002864838,N
1525788058.8132,0.0352372512044929,0.172318552308783,-2.25120046119845,-0.00464838370680809,0.225879862904549,-0.381312251091003,N
1525788058.81874,0.0347077842558051,0.138863177820847,-2.26032824899356,-0.073032557964325,0.210179418325424,-0.452910482883453,N
1525788058.82864,0.0342541498126112,0.106600026456288,-2.27081035421295,-0.128535464406013,0.223189026117325,-0.507648229598999,N
1525788058.83865,0.0324814208081744,0.0762698130609617,-2.28261414785998,-0.0864126682281494,0.221505343914032,-0.549377262592316,N
1525788058.84944,0.0285402885991788,0.0483967290839629,-2.2950760869683,-0.00769001245498657,0.226219028234482,-0.573400795459747,N
1525788058.85941,0.0228900307530241,0.0229399271526077,-2.30728320682698,0.0479035153985023,0.231678158044815,-0.549902439117432,N
1525788058.8686,0.0170506031240193,-0.00177829847178461,-2.31892594367904,0.082010306417942,0.217810928821564,-0.495157301425934,N
1525788058.88019,0.0121040664647476,-0.0267113222312787,-2.32952947106669,0.105347447097301,0.202127918601036,-0.49978905916214,N
1525788058.88867,0.0081522669457496,-0.051403578626648,-2.33900888012875,0.134329900145531,0.184153720736504,-0.5593221783638,N
1525788058.89875,0.00499994485505373,-0.0750549051136858,-2.34721170468591,0.12565989792347,0.161007970571518,-0.604924321174622,N
1525788058.90954,0.00256468093572527,-0.097526909493794,-2.35504755715564,0.0812335163354874,0.163018852472305,-0.608896493911743,N
1525788058.91886,0.000261065493816709,-0.119128930815611,-2.36292020081329,0.0486604608595371,0.153598323464394,-0.598548650741577,N
1525788058.92963,-0.00329779124096463,-0.1400873322177,-2.37141395196096,0.0504761710762978,0.13844658434391,-0.635488212108612,N
1525788058.93874,-0.0088506719335066,-0.160141719902169,-2.38028269345666,0.055322390049696,0.114971205592155,-0.71292245388031,N
1525788058.95043,-0.0153956463046579,-0.179279680522616,-2.3894101177139,0.105709202587605,0.0888605415821075,-0.818039357662201,N
1525788058.95946,-0.0211433498155251,-0.197042703571803,-2.39790823168837,0.160869389772415,0.0661164820194244,-0.921730041503906,N
1525788058.97019,-0.0248215370031641,-0.213195268705982,-2.40551000144869,0.194789320230484,0.0504094958305359,-0.983558297157288,N
1525788058.98212,-0.0264606875721792,-0.227447874650301,-2.41185877970676,0.194797784090042,0.0377680212259293,-1.01796305179596,N
1525788058.99019,-0.0269580159005596,-0.239488672035972,-2.41743467882882,0.193314969539642,0.0243144631385803,-1.02396500110626,N
1525788058.99946,-0.0274138375125239,-0.249337531685152,-2.4219932881725,0.192074865102768,0.0158112049102783,-1.01663959026337,N
1525788059.01109,-0.0285732420446907,-0.256511876002839,-2.42596181177698,0.166092842817307,0.0097043514251709,-1.03923273086548,N
1525788059.01947,-0.0310087318315907,-0.260441197616879,-2.4294879277492,0.142888501286507,-0.00414997339248657,-1.04779887199402,N
1525788059.02943,-0.0342388801995682,-0.261359059912768,-2.43298341836542,0.118305251002312,-0.00805801153182983,-1.02448630332947,N
1525788059.03955,-0.0372967639445503,-0.259908254135541,-2.43611357463594,0.122247897088528,-0.0105777084827423,-0.99002331495285,N
1525788059.04966,-0.0400749775586795,-0.256323441836231,-2.43848156241583,0.133039355278015,-0.0172739923000336,-0.97361832857132,N
1525788059.05991,-0.0429008511200995,-0.250340144759219,-2.4397185480134,0.103715114295483,-0.0277780592441559,-0.963215589523315,N
1525788059.06873,-0.0458164400461658,-0.2417732916052,-2.44048942943669,0.0464366897940636,-0.0373678356409073,-0.936414957046509,N
1525788059.07952,-0.0483582774933716,-0.231081401448035,-2.44113890662083,-0.00931143015623093,-0.0407978892326355,-0.8843013048172,N
1525788059.08877,-0.0501397657881761,-0.218998990692224,-2.44216928861081,-0.0460642650723457,-0.0344065576791763,-0.845805287361145,N
1525788059.09881,-0.0507777995549723,-0.20568400621532,-2.44338791525739,-0.0658992081880569,-0.0247629135847092,-0.837052762508392,N
1525788059.10946,-0.0500991762890011,-0.191184364136283,-2.44510683439598,-0.0807628035545349,-0.006183922290802,-0.838375926017761,N
1525788059.11895,-0.0485507527160678,-0.175439458489102,-2.44694296167928,-0.0721931457519531,0.0294691473245621,-0.849045157432556,N
1525788059.12883,-0.0462537347395796,-0.157941591527472,-2.4488561087282,-0.0477525740861893,0.063386857509613,-0.875899314880371,N
1525788059.1388,-0.0431255452979515,-0.138483578366091,-2.45052000643648,-0.0378822200000286,0.105137944221497,-0.865245997905731,N
1525788059.14936,-0.0391838592051371,-0.117190903238586,-2.45208613537855,-0.0396776236593723,0.138402462005615,-0.832648813724518,N
1525788059.1595,-0.0345471669136562,-0.0943288114664097,-2.45345535502481,-0.0369633585214615,0.161288917064667,-0.806766986846924,N
1525788059.16889,-0.029321959056416,-0.0697054538587069,-2.45489801850948,-0.0295608099550009,0.197364524006844,-0.793689787387848,N
1525788059.18005,-0.0238813762630752,-0.043041496565031,-2.45620678299245,-0.0060349740087986,0.236985832452774,-0.782308459281921,N
1525788059.18889,-0.01856737458045,-0.0141032293707754,-2.45737115611711,0.0268499851226807,0.276836574077606,-0.753888130187988,N
1525788059.19895,-0.0130031016415732,0.0167260738547287,-2.45842359095841,0.00479168817400932,0.324159383773804,-0.693522751331329,N
1525788059.20967,-0.00687648735784813,0.0491804543793909,-2.45982820907941,-0.00619340408593416,0.36605516076088,-0.62980329990387,N
1525788059.21896,-0.000938535901047244,0.0830928421045765,-2.46147315471286,0.0233046822249889,0.383839547634125,-0.582933723926544,N
1525788059.22873,0.00457772263970747,0.11863215008108,-2.46310945241763,0.0595108643174171,0.404166460037231,-0.530735850334167,N
1525788059.23892,0.0102261349781868,0.155481731938561,-2.46435850434889,0.0888811647891998,0.428507149219513,-0.452132284641266,N
1525788059.25797,0.016474185739954,0.193051226105379,-2.46513695764036,0.105445131659508,0.468282550573349,-0.369021058082581,N
1525788059.25905,0.0233172161666346,0.231399857702044,-2.46540050263336,0.111934632062912,0.504090070724487,-0.297456622123718,N
1525788059.26894,0.0305296376832293,0.270449639326405,-2.46528894580347,0.0937078297138214,0.541243135929108,-0.222161948680878,N
1525788059.27903,0.0379851839377282,0.30987669454384,-2.46512109140129,0.0512045249342918,0.570428848266602,-0.125983059406281,N
1525788059.28882,0.0455569898208015,0.34910664548748,-2.4653613998919,0.0107031911611557,0.584978401660919,-0.042863667011261,N
1525788059.29899,0.0532843808636012,0.387837552777503,-2.46617647114858,-0.0224328264594078,0.582502663135529,0.0118938088417053,N
1525788059.31159,0.0616541162374669,0.426318582859678,-2.46786567929102,-0.0437557995319366,0.589302957057953,0.0381283164024353,N
1525788059.31898,0.0703925831963908,0.46526830634503,-2.47068269179409,-0.0353158712387085,0.587502300739288,0.0853050351142883,N
1525788059.32887,0.079050120568871,0.504561763148961,-2.4745282868352,-0.0162098705768585,0.610956788063049,0.168764710426331,N
1525788059.33887,0.0873269888871571,0.544274153737221,-2.47910837978237,0.00999638438224792,0.636937856674194,0.287332475185394,N
1525788059.3495,0.0949710990546722,0.583637379704234,-2.48436198202201,-0.00594969093799591,0.671103715896606,0.480483591556549,N
1525788059.35911,0.102644104291418,0.620510575212519,-2.49073108755054,-0.0380136668682098,0.66932600736618,0.694416105747223,N
1525788059.36881,0.110520610714353,0.653418177952774,-2.4986943983682,-0.0706234723329544,0.646112024784088,0.848248064517975,N
1525788059.37918,0.118168010112558,0.681601456568724,-2.50771688335149,-0.112547770142555,0.59517115354538,0.889542102813721,N
1525788059.38884,0.126695974800562,0.705703396587369,-2.51833051285673,-0.128495663404465,0.551523506641388,0.84683632850647,N
1525788059.3989,0.136195698190521,0.726765863110376,-2.53062986135655,-0.117383316159248,0.532971143722534,0.829807996749878,N
1525788059.40914,0.144678689118193,0.745265279183399,-2.5441541975511,-0.0977305024862289,0.514928221702576,0.852672457695007,N
1525788059.41904,0.150744068991416,0.760881125015455,-2.5588222377837,-0.151789978146553,0.488449037075043,0.874661326408386,N
1525788059.42886,0.156773147864314,0.773364577226727,-2.57638304913531,-0.250272125005722,0.450133681297302,0.834184527397156,N
1525788059.43894,0.16609402776489,0.783114309047832,-2.5965031734205,-0.184709042310715,0.403838992118835,0.713187634944916,N
1525788059.44966,0.179002033784866,0.792181195760855,-2.61679207891555,-0.00854095816612244,0.366946578025818,0.543703436851501,N
1525788059.45926,0.19277509556979,0.802923534313723,-2.6337545530519,0.100308150053024,0.371611535549164,0.474647521972656,N
1525788059.46906,0.205101307608072,0.815034960899534,-2.64654262829906,0.0778919458389282,0.357037305831909,0.544255375862122,N
1525788059.47975,0.215774138764963,0.826922211695263,-2.65628611711623,-0.0705923736095428,0.317637860774994,0.623798012733459,N
1525788059.48894,0.226755185802456,0.837117937289099,-2.66580921387904,-0.187983900308609,0.298029482364655,0.631911396980286,N
1525788059.49905,0.238825709109757,0.845254491387317,-2.67538747698087,-0.159821838140488,0.264070153236389,0.613869190216064,N
1525788059.51103,0.250019473454151,0.851619016064082,-2.68412089437163,-0.100585281848907,0.241666793823242,0.569832324981689,N
1525788059.51919,0.258606844865011,0.856583124087593,-2.69141735020863,-0.133911788463593,0.165200531482697,0.581880569458008,N
0,0,0,0,0,0,0,0
1525788060.51926,0.171642170240364,-0.194990794627412,-2.03747127704866,0.0349965691566467,0.0185990631580353,-0.171183884143829,N
1525788060.53032,0.172353179455477,-0.182337009582573,-2.03459386013994,-0.0709713250398636,0.061576321721077,-0.128712594509125,N
1525788060.5393,0.168893793607619,-0.17174071191075,-2.03553286147584,-0.0341799408197403,0.105118528008461,0.0880448818206787,N
1525788060.54989,0.163628591109388,-0.165073150843414,-2.03581831010086,0.0448203831911087,0.0951359570026398,0.136423289775848,N
1525788060.55937,0.160704056044539,-0.161864326467998,-2.03507377937654,0.00220412015914917,0.0575457811355591,0.100722432136536,N
1525788060.56928,0.16003076129197,-0.161178312678663,-2.0342829951689,-0.0393938273191452,0.0282851159572601,0.000320971012115479,N
1525788060.57979,0.159208575669606,-0.161365986944405,-2.03429121846475,-0.0178969204425812,0.00246511399745941,-0.112937331199646,N
1525788060.58932,0.15747429397592,-0.160612678604659,-2.03442504726724,-0.0117394328117371,-0.0115312933921814,-0.2023766040802,N
1525788060.59933,0.155209596286744,-0.15832088355334,-2.03537304997916,-0.0347796678543091,-0.018149197101593,-0.215737581253052,N
1525788060.60977,0.15277138330208,-0.154915681388022,-2.03695807674549,-0.0440016537904739,-0.0227049887180328,-0.195006906986237,N
1525788060.6196,0.150272249961299,-0.150849446752873,-2.03896834867519,-0.0141723603010178,-0.0324496179819107,-0.169256925582886,N
1525788060.6293,0.147534498563306,-0.146459601892878,-2.04090601688337,0.00884029269218445,-0.0433364659547806,-0.144790053367615,N
1525788060.63934,0.144536302547056,-0.142020262069003,-2.0427726986605,0.0234779417514801,-0.0370511412620544,-0.115208268165588,N
1525788060.64982,0.141739188506372,-0.138145341818642,-2.04455235001907,0.0275764763355255,-0.0351825654506683,-0.078633189201355,N
1525788060.65938,0.139626172368263,-0.135306872363849,-2.04608437368504,0.0362324118614197,-0.0349645763635635,-0.0639032125473022,N
1525788060.66936,0.13799581863475,-0.133397875600299,-2.04719192192811,0.0425731539726257,-0.0366585999727249,-0.0894121527671814,N
1525788060.68,0.13661004754265,-0.132037995776356,-2.04784886040732,0.0531712621450424,-0.0573596209287643,-0.137996077537537,N
1525788060.6893,0.135258711420148,-0.130694131090651,-2.04825103355358,0.0591591894626617,-0.0695618987083435,-0.191122174263,N
1525788060.69946,0.133704866695619,-0.128950933287673,-2.04851439782731,0.0749837905168533,-0.0600666254758835,-0.235598564147949,N
1525788060.70971,0.131979210597076,-0.126695852163795,-2.04855791772778,0.0852329134941101,-0.057585820555687,-0.272257387638092,N
1525788060.71968,0.130126755013383,-0.123847396949937,-2.04823192257972,0.0946379750967026,-0.0503498911857605,-0.308865249156952,N
1525788060.72942,0.127942745027239,-0.120608962187556,-2.04741199960562,0.0920829325914383,-0.0563824400305748,-0.340909600257874,N
1525788060.7394,0.125859759241461,-0.117397536010175,-2.04623080853644,0.0796819925308228,-0.0669418945908546,-0.391188204288483,N
1525788060.7502,0.124374528402174,-0.114225357272542,-2.04475089887787,0.0857997089624405,-0.0788971781730652,-0.461685359477997,N
1525788060.75976,0.123692649622581,-0.110648190673011,-2.04287853812554,0.0844845622777939,-0.0777382180094719,-0.529272735118866,N
1525788060.7693,0.123488441190844,-0.106465837005,-2.04061565042688,0.0561725124716759,-0.0598018020391464,-0.587986826896667,N
1525788060.78015,0.123219936934894,-0.101245321699265,-2.03863823347105,0.0155536830425262,-0.0508710220456123,-0.652129411697388,N
1525788060.78942,0.122416185796669,-0.0943576809597768,-2.03700551464379,0.00228812545537949,-0.0380806401371956,-0.714855790138245,N
1525788060.79942,0.121091239046846,-0.0857521165360739,-2.03612494757055,0.00872243195772171,-0.0214685946702957,-0.753890097141266,N
1525788060.80972,0.119801680341157,-0.0754343863296297,-2.03531096497249,0.0209002569317818,-0.00114411115646362,-0.787899434566498,N
1525788060.81966,0.11886605451546,-0.0632133243123071,-2.03466709304229,0.0314460471272469,0.0370942652225494,-0.834509432315826,N
1525788060.82938,0.118648755102018,-0.0486640802295039,-2.0336804339084,0.0467170774936676,0.0824128612875938,-0.867748916149139,N
1525788060.83945,0.1194903546262,-0.0316345567683693,-2.0323237264134,0.0781190544366837,0.133425042033195,-0.856549978256226,N
1525788060.85045,0.120717041542105,-0.0125708684649823,-2.03018569029272,0.0750810652971268,0.165530040860176,-0.802735567092896,N
1525788060.85972,0.121681842266492,0.00785440056405267,-2.02793628565824,0.0294398367404938,0.183101505041122,-0.753136992454529,N
1525788060.86936,0.122237601903152,0.0296362647316214,-2.02564928087495,-0.00823241472244263,0.203551605343819,-0.733575046062469,N
1525788060.88249,0.12206658731204,0.0532734140590566,-2.02354421344943,-0.0251096114516258,0.210841000080109,-0.729369044303894,N
1525788060.88942,0.121440010703994,0.0789968694533625,-2.02157299963266,-0.0597593039274216,0.218456357717514,-0.692253649234772,N
1525788060.89952,0.121313088484491,0.106243041731069,-2.02024188985504,-0.0896479785442352,0.230997502803802,-0.608374953269958,N
1525788060.90983,0.12194985399695,0.134219142032897,-2.0194559825289,-0.110391370952129,0.257000714540482,-0.509456813335419,N
1525788060.91975,0.122797666712915,0.162552244564575,-2.01953358106294,-0.121851123869419,0.273913145065308,-0.418715298175812,N
1525788060.92942,0.123419997050863,0.190957281141878,-2.02033752770647,-0.125370532274246,0.288828402757645,-0.365656971931458,N
1525788060.93945,0.123991348258155,0.219570372746178,-2.02190370068306,-0.117179833352566,0.309485137462616,-0.336677491664886,N
1525788060.95033,0.124787408657886,0.248574145888546,-2.02377716476606,-0.106554441154003,0.31421372294426,-0.312839329242706,N
1525788060.95956,0.126090026794169,0.278173369616535,-2.02602167548419,-0.120357364416122,0.326830506324768,-0.297845125198364,N
1525788060.96936,0.127847529136606,0.308833642188286,-2.02870394375403,-0.121269002556801,0.356102228164673,-0.281008243560791,N
1525788060.98027,0.129801734856211,0.341073899789064,-2.03202978996077,-0.131777554750443,0.395137757062912,-0.22510838508606,N
1525788060.98945,0.131794029700103,0.37441737352259,-2.03633726772109,-0.153146639466286,0.444130003452301,-0.133777737617493,N
1525788060.99954,0.133686319613904,0.408171092471353,-2.04159181964362,-0.142190247774124,0.493061721324921,-0.0456942915916443,N
1525788061.00979,0.135876756610756,0.441869612858786,-2.04711054926571,-0.104458570480347,0.515749752521515,0.024482250213623,N
1525788061.01959,0.138851065296299,0.475181468044267,-2.05235596219735,-0.0995880663394928,0.530635237693787,0.0692348480224609,N
1525788061.02954,0.142759403730804,0.508727705065049,-2.05754961067214,-0.131475374102592,0.543661296367645,0.0999232530593872,N
1525788061.03948,0.147621988207359,0.542851267308507,-2.0633362353793,-0.194773510098457,0.563988506793976,0.171526491641998,N
1525788061.05001,0.152867524381556,0.577065530401334,-2.07050054463283,-0.246465533971786,0.578556478023529,0.301087379455566,N
1525788061.0598,0.158448771420445,0.610377854880412,-2.07928127763067,-0.271110445261002,0.58517050743103,0.433647513389587,N
1525788061.06954,0.164707395380012,0.641953598600287,-2.08965224389733,-0.262441754341125,0.593252837657928,0.536623954772949,N
1525788061.07986,0.170998522373065,0.671517092304729,-2.1008462293291,-0.230128154158592,0.58569061756134,0.601065397262573,N
1525788061.08959,0.177283618427066,0.699142900029549,-2.11249349132961,-0.198885887861252,0.57918506860733,0.648477733135223,N
1525788061.09951,0.184026652164998,0.724659058834388,-2.12415755872961,-0.180771172046661,0.576179802417755,0.690977692604065,N
1525788061.11152,0.191204967968127,0.747866309595686,-2.13556890557833,-0.182983040809631,0.570670485496521,0.751411855220795,N
1525788061.11963,0.198577056068441,0.768604279482305,-2.14709887019543,-0.200624316930771,0.554675400257111,0.80462259054184,N
1525788061.12948,0.205714176360249,0.786968172068707,-2.15895641255224,-0.216751307249069,0.54320752620697,0.845528423786163,N
1525788061.13951,0.212854937185371,0.803079669472253,-2.17157999997831,-0.202651381492615,0.537491500377655,0.885149419307709,N
1525788061.15044,0.219653580955374,0.817032680683299,-2.18422077712154,-0.168287187814713,0.531745791435242,0.915562987327576,N
1525788061.15983,0.225219516926173,0.829007335693254,-2.19657959957554,-0.144391864538193,0.526674509048462,0.937979102134705,N
1525788061.17054,0.229050687440489,0.838985691820665,-2.20817354106226,-0.136263608932495,0.511055588722229,0.951988577842712,N
1525788061.18016,0.231193006738996,0.846938937420948,-2.21909347464749,-0.154881954193115,0.501087665557861,0.965642094612122,N
1525788061.18947,0.232277268864272,0.852365341754127,-2.2290717839568,-0.178080201148987,0.481705963611603,0.994882166385651,N
1525788061.19971,0.233446412556235,0.854624044048197,-2.23855288902728,-0.174590021371841,0.432058572769165,1.0151891708374,N
1525788061.21339,0.235063172495238,0.853464917149618,-2.24709145873754,-0.151732355356216,0.39104437828064,1.0214079618454,N
1525788061.21988,0.237016525236829,0.849030963952785,-2.25476256084451,-0.119034856557846,0.365768074989319,1.00345993041992,N
1525788061.22952,0.239023261623024,0.841884160260632,-2.26159401507036,-0.079826146364212,0.351673305034637,0.958202719688416,N
1525788061.23957,0.240389669654646,0.832683426830148,-2.26800098885604,-0.0372171700000763,0.351449310779572,0.901285409927368,N
1525788061.25049,0.240242521421862,0.821819224838614,-2.27343337229971,-0.00865873694419861,0.340311169624329,0.853579878807068,N
1525788061.25974,0.238414732484874,0.809711670939423,-2.27795852420388,-0.00857073068618774,0.345990836620331,0.796006083488464,N
1525788061.26979,0.235021423175711,0.796984576892976,-2.28158299218801,-0.0161646902561188,0.356075346469879,0.749569535255432,N
1525788061.28015,0.23018341642135,0.783727981678992,-2.28434952068763,-0.0173127055168152,0.350837528705597,0.748961567878723,N
1525788061.28954,0.224354187522587,0.769200471032998,-2.28619337240009,-0.0445466786623001,0.311115860939026,0.788976430892944,N
1525788061.29962,0.219307946230495,0.75204601148104,-2.28833760211497,-0.111133351922035,0.295210182666779,0.827622711658478,N
1525788061.31599,0.215881525495557,0.73179781380146,-2.29133728071476,-0.13255587220192,0.298213124275208,0.819783210754395,N
1525788061.31987,0.212766976971846,0.708812136505448,-2.29512856673413,-0.107919573783875,0.301765620708466,0.772503972053528,N
1525788061.32963,0.208346558071121,0.684002987475902,-2.29925837972506,-0.0781902819871902,0.296161472797394,0.674364686012268,N
1525788061.33963,0.202381102386122,0.658710388638038,-2.30364892384415,-0.059034526348114,0.306372463703156,0.575469672679901,N
1525788061.35072,0.195989895352864,0.633853649941379,-2.30789626686162,-0.0460396260023117,0.322967112064362,0.52572238445282,N
1525788061.35988,0.190264077444134,0.608914716038641,-2.31218484637753,-0.0413582772016525,0.319276750087738,0.575440466403961,N
1525788061.36973,0.185410907777072,0.582473940198168,-2.31674742333572,-0.042638897895813,0.343594431877136,0.67578661441803,N
1525788061.37983,0.180610592741352,0.552995206498902,-2.32146227319661,0.0207724869251251,0.352096855640411,0.756241917610168,N
1525788061.38959,0.17501013481702,0.51923213376503,-2.32521276405641,0.0991968065500259,0.356519401073456,0.736743748188019,N
1525788061.39961,0.168606246302398,0.481667537790596,-2.3272015802165,0.1484185308218,0.345734447240829,0.561293840408325,N
1525788061.41347,0.161890680382878,0.441961914584466,-2.32741894877043,0.101785391569138,0.347040474414825,0.348485231399536,N
1525788061.41984,0.155422596756121,0.401050972100653,-2.32676908105001,0.00515994429588318,0.342702448368073,0.140861749649048,N
1525788061.42961,0.149948257327101,0.360968700299372,-2.32658733351822,-0.0900771170854568,0.338059216737747,-0.0579599738121033,N
1525788061.43971,0.145295068278492,0.323490845841304,-2.32806048605051,-0.148184686899185,0.359611034393311,-0.161071419715881,N
1525788061.4502,0.140468353616593,0.288623825456958,-2.33173462112869,-0.121123641729355,0.362681955099106,-0.122247278690338,N
1525788061.4598,0.134490558723874,0.254461801992143,-2.33745337280291,-0.0406106859445572,0.360489219427109,-0.00381594896316528,N
1525788061.46961,0.125958280465586,0.219027586303859,-2.3435943291048,0.120524622499943,0.36869353055954,-0.00382232666015625,N
1525788061.48194,0.115188190754733,0.183049966623892,-2.34825092945526,0.237160503864288,0.31764954328537,-0.133055806159973,N
1525788061.49092,0.103046399093824,0.147244585825693,-2.35076837648477,0.233820244669914,0.260696232318878,-0.264099717140198,N
1525788061.49984,0.0919042328132402,0.11160736921648,-2.35135826141016,0.101316221058369,0.202028274536133,-0.396646082401276,N
1525788061.51258,0.0846031349696736,0.0769520796902097,-2.35181350680951,-0.0826042294502258,0.174929141998291,-0.535227239131927,N
1525788061.51998,0.0813502392905097,0.044519381831588,-2.35442557596997,-0.26274436712265,0.198450595140457,-0.614203691482544,N
1525788061.52972,0.0797496457244241,0.0146852726954841,-2.36095169347598,-0.332677781581879,0.230352476239204,-0.620595395565033,N
1525788061.53969,0.0770907920777654,-0.0122442131845666,-2.37137909864019,-0.264752805233002,0.296471923589706,-0.576332747936249,N
1525788061.55029,0.0713052797811991,-0.0375115065962966,-2.38392144591342,-0.0674868673086166,0.345950663089752,-0.493156790733337,N
1525788061.55977,0.0630486754370869,-0.0632053035871574,-2.39581599432186,0.176712408661842,0.320625841617584,-0.474530279636383,N
1525788061.56974,0.0548004952616673,-0.0892265063451317,-2.40502035228109,0.357401609420776,0.281253159046173,-0.623896718025208,N
1525788061.5802,0.0482756300122078,-0.113647420841841,-2.41029224224422,0.415875822305679,0.220322042703629,-0.816782057285309,N
1525788061.58963,0.0438661621219174,-0.134893223215653,-2.41270337864742,0.270740002393723,0.169531613588333,-0.924786686897278,N
1525788061.59972,0.0405889302095018,-0.152778724969426,-2.41419557462834,0.0797679126262665,0.10481870174408,-0.915461897850037,N
1525788061.61345,0.0378656143235208,-0.168350103762525,-2.41693968488439,-0.0908186882734299,0.0929267704486847,-0.83504980802536,N
1525788061.62002,0.0350154888100295,-0.183761541106203,-2.4217931097774,-0.152018398046494,0.0976359248161316,-0.745558261871338,N
1525788061.62964,0.0314167439993602,-0.200019557254466,-2.42832674049487,-0.0822074264287949,0.0941581726074219,-0.782017588615417,N
1525788061.6397,0.0271032117761982,-0.215998300152542,-2.43508139542959,0.0354805141687393,0.0826286524534225,-0.941381454467773,N
1525788061.65179,0.022668605445341,-0.229316987744577,-2.44112821906051,0.128897160291672,0.0595680475234985,-1.10418713092804,N
1525788061.66072,0.0185675330656618,-0.238521669463856,-2.44585458520359,0.165751293301582,0.0385138541460037,-1.16286325454712,N
1525788061.66994,0.0150709348266579,-0.243879955782873,-2.44960365482335,0.154931262135506,0.0402381867170334,-1.0751119852066,N
1525788061.68028,0.0122067306908967,-0.247426908933921,-2.45247950481203,0.131735265254974,0.0468532592058182,-0.917702913284302,N
1525788061.68965,0.0100265389299849,-0.251022310512309,-2.45504231343159,0.0996323525905609,0.0458866506814957,-0.832140445709229,N
1525788061.69977,0.00851787561466122,-0.25460478151777,-2.45724586671535,0.0993923097848892,0.0400071740150452,-0.86694324016571,N
1525788061.71339,0.00749294954850063,-0.256783804449977,-2.4589900310961,0.113892324268818,0.0264396369457245,-0.939599394798279,N
1525788061.72169,0.00681939704117927,-0.256795350799641,-2.46000056065073,0.114391215145588,0.0165255069732666,-0.962226450443268,N
1525788061.7304,0.00625215335677208,-0.254586137333814,-2.46043801657499,0.0934367105364799,0.0110945403575897,-0.961038529872894,N
1525788061.74261,0.0054599661972721,-0.250059253065694,-2.46046778702482,0.0687302649021149,0.00549884140491486,-0.9547159075737,N
1525788061.74991,0.00424596257568102,-0.24327967816232,-2.46034494176341,0.0388630926609039,0.00535930693149567,-0.935293614864349,N
1525788061.76289,0.00276331864797504,-0.234617346456323,-2.46029264451437,0.00958045572042465,0.0248533934354782,-0.920237898826599,N
1525788061.77003,0.00123081669555995,-0.224092112260799,-2.46036576921641,0.00554434210062027,0.0360337495803833,-0.924296498298645,N
1525788061.78255,3.38736600180404e-05,-0.2113828477257,-2.46061161907355,0.0172245725989342,0.0550346374511719,-0.922374248504639,N
1525788061.79049,-0.000182719523975169,-0.196600028894544,-2.4607274825667,0.0306815207004547,0.0726235955953598,-0.889884352684021,N
1525788061.7998,0.000863449401265988,-0.180067851909391,-2.46076882659808,0.0397388935089111,0.086818590760231,-0.824854135513306,N
1525788061.81911,0.00267006878130596,-0.162265524682419,-2.46053435522511,0.0373277775943279,0.104024842381477,-0.76158332824707,N
1525788061.8199,0.00482217046180366,-0.143419120982164,-2.46010342072628,0.0191378779709339,0.121369525790215,-0.72925728559494,N
1525788061.8297,0.00736232585116565,-0.123392846315852,-2.45963562145919,0.0101497732102871,0.1385777592659,-0.719147443771362,N
1525788061.83991,0.0104024396330443,-0.101859195499294,-2.45936155206415,0.0265474170446396,0.160020336508751,-0.710788130760193,N
1525788061.8503,0.0137491355794791,-0.0785840636762263,-2.45895877190252,0.051845483481884,0.185214444994926,-0.697455286979675,N
1525788061.85981,0.0169707025868043,-0.0531940589060954,-2.45838861428405,0.0715245753526688,0.213463097810745,-0.659807145595551,N
1525788061.8699,0.0200522551523625,-0.0259914366135788,-2.45750190666839,0.0622922852635384,0.233914449810982,-0.606160044670105,N
1525788061.88031,0.0236409052806714,0.00269110782458951,-2.45661630953608,0.0306674130260944,0.257390797138214,-0.541512310504913,N
1525788061.88979,0.0283644829968109,0.032146009643771,-2.45594090373521,-0.00947090424597263,0.279088705778122,-0.456897079944611,N
1525788061.8999,0.0340762715330878,0.0617473530250143,-2.45573145122779,-0.0352407097816467,0.303422600030899,-0.400754868984222,N
1525788061.90998,0.0404334865741654,0.0920253079349601,-2.45588933802709,-0.0360705256462097,0.312796950340271,-0.373804330825806,N
1525788061.91993,0.0468959989910823,0.123398036249695,-2.45658253965021,-0.0252973772585392,0.329338163137436,-0.339947998523712,N
1525788061.92979,0.0527718906170784,0.15603542817515,-2.45755741719167,-0.0109536275267601,0.347373843193054,-0.286961555480957,N
1525788061.94022,0.05795788222833,0.18967780773652,-2.45896430686349,-0.0424669943749905,0.365620732307434,-0.217810869216919,N
1525788061.95112,0.0630264238740121,0.223725806548945,-2.46113232644064,-0.07685686647892,0.389161467552185,-0.152636647224426,N
1525788061.95983,0.0682791418977818,0.257778911971467,-2.46398856219321,-0.0591511353850365,0.404957890510559,-0.113694190979004,N
1525788061.97002,0.0740785106095565,0.292099145291838,-2.46714042985915,-0.0370317995548248,0.41578596830368,-0.0834522843360901,N
1525788061.98008,0.0805143039728889,0.326504377292868,-2.47061324727651,-0.0128543376922607,0.430841475725174,-0.0387939810752869,N
1525788061.98992,0.0875667606011512,0.360737820503026,-2.47414364896779,-0.000267781317234039,0.437315255403519,0.00604158639907837,N
1525788061.99986,0.0951934450943931,0.394906486498622,-2.47790845432981,-0.000285878777503967,0.449358105659485,0.0411374568939209,N
1525788062.0116,0.103115344045848,0.429078343081572,-2.48203858306312,-0.0127302333712578,0.452669233083725,0.0766385793685913,N
1525788062.01998,0.111471108932952,0.463327357500785,-2.48657612358205,-0.0159094631671906,0.468854010105133,0.125941455364227,N
1525788062.02993,0.120258781233526,0.497416866743661,-2.49147618988923,-0.0100941210985184,0.47315925359726,0.17590719461441,N
1525788062.03994,0.129026093289519,0.531370758975864,-2.49687580258194,-0.00446616113185883,0.478044271469116,0.233899116516113,N
1525788062.05046,0.13744247487958,0.565140586642227,-2.50287953400637,0.0107732117176056,0.487881362438202,0.300172328948975,N
1525788062.05988,0.1452696035239,0.59832520450723,-2.50927523753483,0.04071244597435,0.495205223560333,0.373225688934326,N
1525788062.06993,0.152812587097137,0.630619266574213,-2.51592119519146,0.0643756985664368,0.509124398231506,0.428652286529541,N
1525788062.08047,0.160717275997551,0.662003601871488,-2.52261838645856,0.0782145857810974,0.527875959873199,0.491579353809357,N
1525788062.08983,0.168864280722383,0.691807007519106,-2.52933111458669,0.0826728790998459,0.527303576469421,0.567078471183777,N
1525788062.10005,0.176591016383941,0.719481833100141,-2.53546229947999,0.0770648121833801,0.512525916099548,0.631044507026672,N
1525788062.10999,0.183227420884777,0.744544820772866,-2.54119968865964,0.066935658454895,0.500101149082184,0.679110527038574,N
1525788062.1201,0.188221083526166,0.766682802282604,-2.54615772154603,0.0657549351453781,0.473428308963776,0.693320393562317,N
1525788062.13083,0.191837004789174,0.786614280911434,-2.55041259019644,0.0709117352962494,0.447666525840759,0.650703251361847,N
1525788062.13991,0.19442971129456,0.805168939448379,-2.55383006247628,0.0883538573980331,0.424026966094971,0.600113272666931,N
1525788062.15049,0.196568355069786,0.822708459598599,-2.55633143872605,0.0909620225429535,0.404896438121796,0.597314476966858,N
1525788062.16144,0.1984805673637,0.83882759290432,-2.55749621695612,0.0761949568986893,0.39154988527298,0.616487383842468,N
1525788062.17003,0.199803880465025,0.853042662460726,-2.55770460127908,0.0320909321308136,0.361622452735901,0.635545969009399,N
1525788062.18041,0.200526727190005,0.865096467509587,-2.55717454352561,-0.0232890993356705,0.331195652484894,0.631298065185547,N
1525788062.18995,0.200763876184855,0.875316300429769,-2.55658775482205,-0.050125852227211,0.307129144668579,0.601333856582642,N
1525788062.2001,0.200239128167492,0.884083985738651,-2.55613731380862,-0.0600797683000565,0.287921965122223,0.571800172328949,N
1525788062.21007,0.198708896660117,0.891553652469185,-2.55610848011955,-0.0905168056488037,0.282656848430634,0.570157527923584,N
1525788062.22012,0.196828900333047,0.897084476471061,-2.55660123898117,-0.114333257079124,0.28264045715332,0.595456779003143,N
1525788062.23074,0.19585468490091,0.899998765326977,-2.55769712362811,-0.101254194974899,0.275391578674316,0.588257551193237,N
1525788062.24777,0.19661211582472,0.900364272391488,-2.55798696700685,-0.0313628017902374,0.247008502483368,0.506967544555664,N
1525788062.25067,0.19849997859144,0.899918196367676,-2.55633365892743,0.0573381781578064,0.213360249996185,0.369247317314148,N
1525788062.26166,0.200062017179268,0.90083764040836,-2.55245457275655,0.0545153021812439,0.21272611618042,0.255617082118988,N
1525788062.27003,0.200376953841175,0.904089318744862,-2.54805999128391,0.000540867447853088,0.216862082481384,0.240320801734924,N
1525788062.28017,0.198951280780098,0.908695315268196,-2.54396218348264,-0.0453026294708252,0.207922279834747,0.341738343238831,N
1525788062.28995,0.194509010125249,0.912987966249043,-2.5400553223188,-0.0487589687108994,0.237287402153015,0.469880342483521,N
0,0,0,0,0,0,0,0
1525788063.21532,0.0710140558231945,-0.28627081673948,-2.11578402440474,-0.0732090100646019,0.0629448890686035,-0.426323533058167,N
1525788063.22031,0.0790913135532669,-0.279300851071032,-2.10892509288073,-0.0727428197860718,-0.0474884808063507,-0.376915872097015,N
1525788063.23036,0.0783241211714692,-0.273843081095168,-2.10649877070647,-0.155833959579468,0.0568677186965942,-0.379598796367645,N
1525788063.24182,0.0767029539153366,-0.269702443153561,-2.10701578852619,-0.0607503801584244,0.0106244385242462,-0.367459654808044,N
1525788063.25093,0.0735388719074737,-0.266314365781504,-2.10774757326729,-0.0110222697257996,0.0172027349472046,-0.457919299602509,N
1525788063.26037,0.0701300617346793,-0.261575154900929,-2.10916824916022,-0.01348976790905,0.0359074473381042,-0.537413001060486,N
1525788063.27038,0.0654913347710898,-0.254503085211947,-2.11095919960888,-0.00735196471214294,0.0382134914398193,-0.557189643383026,N
1525788063.28038,0.0600624301993605,-0.244932874820677,-2.11354287407987,-0.0258403420448303,0.0664534866809845,-0.528742432594299,N
1525788063.29063,0.0548813882681452,-0.233223286002826,-2.11612441539782,-0.0146114341914654,0.0905710458755493,-0.442219376564026,N
1525788063.30032,0.0503740234878917,-0.220604639814321,-2.118924138887,0.00846948847174644,0.0949163138866425,-0.307744801044464,N
1525788063.31053,0.0463093522869367,-0.208043982092199,-2.12128490182925,0.055947482585907,0.0953181684017181,-0.214689791202545,N
1525788063.32041,0.0421026815999076,-0.195785063695824,-2.12310524086489,0.113361708819866,0.0871711075305939,-0.156250238418579,N
1525788063.33028,0.0377386557284576,-0.184170341374288,-2.12376663256862,0.139864534139633,0.0761616379022598,-0.108416497707367,N
1525788063.3417,0.033574131768017,-0.173432343353026,-2.12374896916584,0.126039147377014,0.0805028080940247,-0.088127613067627,N
1525788063.35101,0.029998732958215,-0.163686912643355,-2.12281377736592,0.0890285223722458,0.0848305374383926,-0.0736862421035767,N
1525788063.36043,0.0273842838287493,-0.15524172999923,-2.12194995272088,0.0388358645141125,0.0774062275886536,-0.0558532476425171,N
1525788063.37034,0.0255561595337111,-0.148210205777348,-2.12098303039203,-0.0110367834568024,0.0852877348661423,-0.0630438327789307,N
1525788063.3827,0.0236774175548972,-0.142250396224549,-2.12055450865963,-0.0157151222229004,0.0740949511528015,-0.10093891620636,N
1525788063.39086,0.0218651522830686,-0.136835617611067,-2.12011338482584,0.0165642239153385,0.047291561961174,-0.165925741195679,N
1525788063.40037,0.0204528839157819,-0.131617692635233,-2.11962491215079,0.0486798956990242,0.0336179435253143,-0.245962798595428,N
1525788063.41196,0.0197297519025906,-0.126350139236874,-2.11840094773675,0.039693932980299,0.0252003818750381,-0.317322969436646,N
1525788063.42044,0.0197905652579373,-0.121200467890002,-2.11707274522609,-0.00856622308492661,0.0227270275354385,-0.396354675292969,N
1525788063.43036,0.0203340221220132,-0.115830807532709,-2.11540186283618,-0.00753157958388329,0.0130901411175728,-0.521463096141815,N
1525788063.44188,0.0213962719584196,-0.109149321264951,-2.11348278592946,1.86879187822342e-05,0.00735451281070709,-0.66052109003067,N
1525788063.45118,0.0231241732821428,-0.100421583865067,-2.11106678426854,-0.0199386049062014,0.0259525552392006,-0.75007027387619,N
1525788063.46052,0.0255593945970746,-0.0895125131433818,-2.10883789681033,-0.043734323233366,0.059486985206604,-0.791865527629852,N
1525788063.47035,0.028496414981037,-0.0765532441546077,-2.10675962581207,-0.0748110860586166,0.11111306399107,-0.806540966033936,N
1525788063.48182,0.0312788618913923,-0.0617486295308353,-2.105207808795,-0.0704597681760788,0.135754585266113,-0.827741980552673,N
1525788063.49128,0.0333559640689727,-0.0445643627247214,-2.10378809418929,-0.0572729669511318,0.14395746588707,-0.853126287460327,N
1525788063.50047,0.0355190986563825,-0.025341741093067,-2.10285530112831,-0.0635001063346863,0.162221997976303,-0.809423327445984,N
1525788063.51056,0.0386422342485544,-0.00479930007636953,-2.10191302791452,-0.0556762404739857,0.15467032790184,-0.772730708122253,N
1525788063.52061,0.0427934782453459,0.0174111267719053,-2.10069238881896,-0.0443608500063419,0.173675507307053,-0.777846097946167,N
1525788063.5305,0.0471963438706634,0.0422772090277173,-2.09870878994991,-0.0395225323736668,0.189771324396133,-0.774406015872955,N
1525788063.54151,0.0513954543816533,0.0702333282699545,-2.09685119880814,-0.0887980535626411,0.209335759282112,-0.708433449268341,N
1525788063.55089,0.0556573866991611,0.100436824302601,-2.0959702747553,-0.164997965097427,0.262392699718475,-0.557117342948914,N
1525788063.56041,0.0607716703919896,0.131313598295412,-2.09652727600094,-0.186737269163132,0.298188120126724,-0.373980045318604,N
1525788063.57027,0.0668360140030635,0.161582946697542,-2.09783207467464,-0.152921915054321,0.312537848949432,-0.258134424686432,N
1525788063.5812,0.0735991018642234,0.19141623828909,-2.09949855716318,-0.123184531927109,0.318499565124512,-0.220049202442169,N
1525788063.59091,0.0810870695335289,0.221245746203951,-2.10117889425058,-0.0984940975904465,0.323250710964203,-0.194710373878479,N
1525788063.60052,0.0892699670069215,0.251536625312327,-2.10288298118229,-0.0846522152423859,0.331946104764938,-0.163621425628662,N
1525788063.61917,0.0979329736088251,0.282381109648426,-2.10455694319428,-0.105988994240761,0.361452698707581,-0.0966516137123108,N
1525788063.62057,0.106918950603781,0.313371930000241,-2.10668251050791,-0.153871163725853,0.39377835392952,0.00949633121490479,N
1525788063.63057,0.116243130107709,0.343419712968128,-2.10940821287486,-0.168352276086807,0.416024267673492,0.0966157913208008,N
1525788063.64162,0.125704527792289,0.3724220830849,-2.11241905071908,-0.129871249198914,0.440639495849609,0.109279870986938,N
1525788063.65098,0.134527544326613,0.401158509552079,-2.11520163091621,-0.0771941691637039,0.447354644536972,0.0784900188446045,N
1525788063.66179,0.142503854653324,0.430219593548827,-2.11753057046199,-0.0703185498714447,0.446474075317383,0.0467713475227356,N
1525788063.67061,0.150292688172619,0.460415524384705,-2.11994599608223,-0.0951346307992935,0.446380317211151,0.0324517488479614,N
1525788063.68131,0.157994797343989,0.491814567961062,-2.12302706986535,-0.115359455347061,0.440716743469238,0.0705410242080688,N
1525788063.69078,0.165710127646248,0.52384818067016,-2.12673713194706,-0.124247491359711,0.453676700592041,0.146305799484253,N
1525788063.70061,0.173458186738064,0.555789005550436,-2.13068823752706,-0.101385146379471,0.448252737522125,0.22829258441925,N
1525788063.71121,0.180676415804707,0.58728961633239,-2.13440814545706,-0.130863770842552,0.456175923347473,0.321321368217468,N
1525788063.72057,0.18747272373377,0.617711158328396,-2.1388244245734,-0.189853340387344,0.462334275245667,0.437061309814453,N
1525788063.73143,0.193903330026741,0.646407501037492,-2.14424863815139,-0.200416073203087,0.457638740539551,0.530210793018341,N
1525788063.74163,0.199679401582148,0.672822398958494,-2.15043928881964,-0.167760998010635,0.460598111152649,0.613984107971191,N
1525788063.75123,0.205310403439706,0.69653859757364,-2.15664242524493,-0.117320328950882,0.43073570728302,0.653880774974823,N
1525788063.76176,0.210893070441064,0.718190700816574,-2.16262386468601,-0.0784800350666046,0.427157878875732,0.637208342552185,N
1525788063.77058,0.215777652007755,0.738500433917023,-2.16789091999376,-0.0660882294178009,0.402076840400696,0.630594432353973,N
1525788063.78099,0.22025155814708,0.757453910731983,-2.17290869466119,-0.102207481861115,0.376664161682129,0.654454350471497,N
1525788063.79073,0.225464012481995,0.774813987877008,-2.17823516450344,-0.123199254274368,0.380354046821594,0.673272728919983,N
1525788063.8008,0.230944200933254,0.790815720228838,-2.18359540288849,-0.0854136347770691,0.381688296794891,0.699532568454742,N
1525788063.81396,0.235120385673321,0.805590815952021,-2.18798282095239,-0.0484071373939514,0.373995780944824,0.736721754074097,N
1525788063.82045,0.237033351330325,0.81896554554485,-2.19139521215815,-0.0527716279029846,0.359727382659912,0.760452926158905,N
1525788063.83043,0.23709708584929,0.830971620669456,-2.19417557758761,-0.0675577521324158,0.346237540245056,0.76609194278717,N
1525788063.8481,0.236061363627329,0.841653768135218,-2.19650689258919,-0.0656962096691132,0.346148729324341,0.77102917432785,N
1525788063.85194,0.233677046440755,0.850625053628123,-2.19769295937297,-0.0778089761734009,0.345274925231934,0.803652226924896,N
1525788063.86069,0.230796704406592,0.857058433703549,-2.19829090339775,-0.140463799238205,0.356765389442444,0.826864898204803,N
1525788063.87039,0.22872632391502,0.860801326779834,-2.19905854661526,-0.180829375982285,0.36183500289917,0.813823938369751,N
1525788063.8813,0.227568259372373,0.862139756610541,-2.20049281969473,-0.194589674472809,0.358235895633698,0.801545917987823,N
1525788063.89074,0.22669459363886,0.861464779539839,-2.20244453097427,-0.180631518363953,0.363854169845581,0.79603910446167,N
1525788063.90079,0.225456063597057,0.859097957845903,-2.20512800127958,-0.169244855642319,0.372427046298981,0.813715636730194,N
1525788063.91384,0.223880778961302,0.854820894658741,-2.20861443623827,-0.147490471601486,0.362531363964081,0.852436304092407,N
1525788063.92064,0.222155004875732,0.848228879132442,-2.21285699148164,-0.0894034802913666,0.370990455150604,0.876841723918915,N
1525788063.93046,0.219407520081664,0.839514062285633,-2.21659274150324,-0.00271376967430115,0.369532287120819,0.87471479177475,N
1525788063.94631,0.21463379446356,0.829027993877191,-2.2189723266029,0.0653190314769745,0.362549662590027,0.856440782546997,N
1525788063.95143,0.207953364676929,0.816995100974079,-2.21921465162636,0.0923703014850616,0.370114266872406,0.846625745296478,N
1525788063.96064,0.199605507011453,0.803122693826863,-2.21732435953856,0.0473586022853851,0.375579833984375,0.841715633869171,N
1525788063.97052,0.19067023165009,0.787098022817782,-2.21444990886428,-0.0848000347614288,0.397379398345947,0.822306990623474,N
1525788063.98113,0.181875330614327,0.768979638686059,-2.212495042791,-0.225042223930359,0.414671123027802,0.783504128456116,N
1525788063.99104,0.17371802305331,0.749218695643268,-2.21246922586435,-0.33287525177002,0.412420630455017,0.739144682884216,N
1525788064.00066,0.166390839672406,0.727758570807423,-2.21512458464841,-0.348153412342072,0.34511411190033,0.728710234165192,N
1525788064.01084,0.16005108590327,0.703958778700507,-2.22012875072273,-0.306344658136368,0.315056622028351,0.723536133766174,N
1525788064.02066,0.154353767345493,0.678040763559425,-2.22642189586352,-0.206190720200539,0.327738344669342,0.65704083442688,N
1525788064.03071,0.14875082325045,0.650765463617656,-2.23273954900329,-0.111519768834114,0.348761320114136,0.602370619773865,N
1525788064.04263,0.142053010200026,0.622173704631823,-2.23813709848241,-0.0721691399812698,0.372017979621887,0.562286496162415,N
1525788064.05163,0.134439021688463,0.592500503176063,-2.24276408598597,-0.0898254960775375,0.406688392162323,0.496637284755707,N
1525788064.06058,0.126545214832889,0.562563407941922,-2.24723295596081,-0.100684955716133,0.442749619483948,0.454940915107727,N
1525788064.07053,0.117887956954796,0.531992490138702,-2.25121442789663,-0.0984002351760864,0.474719703197479,0.46726667881012,N
1525788064.08101,0.108660270501193,0.499486880194105,-2.25453033785362,-0.123090535402298,0.478959918022156,0.489380896091461,N
1525788064.09093,0.100869118476103,0.463998804905793,-2.25797820996312,-0.162301704287529,0.472628384828568,0.466643989086151,N
1525788064.10059,0.0954990578302049,0.425373484036555,-2.26262337822068,-0.1711765229702,0.480364263057709,0.388728737831116,N
1525788064.11092,0.0911144283157336,0.384159778067927,-2.26807488908202,-0.0986693352460861,0.467309564352036,0.242970049381256,N
1525788064.12073,0.0860696270857323,0.342543839314489,-2.27387856118234,-0.0555785745382309,0.437889218330383,0.061463475227356,N
1525788064.13061,0.0792355735057735,0.302047137463517,-2.28015330616347,-0.0534746721386909,0.39479586482048,-0.0845513343811035,N
1525788064.14164,0.0704556236549424,0.263162146273883,-2.28725797820943,-0.074870690703392,0.3674196600914,-0.194477140903473,N
1525788064.15118,0.0595153973564485,0.225701140639011,-2.29473446863909,-0.0508153215050697,0.337910264730453,-0.296237945556641,N
1525788064.16189,0.047510885391239,0.189566946826205,-2.30197871155852,-0.0177115574479103,0.306902855634689,-0.409036934375763,N
1525788064.17064,0.0373856002277283,0.155128008344129,-2.30914586039181,-0.00392329692840576,0.316280245780945,-0.46562522649765,N
1525788064.18154,0.0311310469608077,0.121495669459298,-2.31632447066906,-0.00613155588507652,0.326015710830688,-0.448312699794769,N
1525788064.19101,0.0280271506966943,0.0872503042452441,-2.32403347638261,0.00594236887991428,0.319866687059402,-0.431990563869476,N
1525788064.20075,0.0254769308261129,0.0522739913613847,-2.33171238672432,0.0731781721115112,0.279148370027542,-0.500179409980774,N
1525788064.21341,0.0217914618001317,0.0175589636675094,-2.33836599061001,0.0934022217988968,0.179667443037033,-0.663507997989655,N
1525788064.22087,0.0165954117600138,-0.0153356974110495,-2.34413874230164,0.0485775880515575,0.0684509128332138,-0.884303748607635,N
1525788064.2308,0.0105833095964485,-0.0438693494644375,-2.34977791968382,-0.0207505412399769,0.000242620706558228,-1.05918455123901,N
1525788064.2428,0.0043899802240885,-0.0674500290165995,-2.35638531764823,-0.0854804515838623,0.0463553741574287,-1.08861780166626,N
1525788064.25094,-0.00165573966648986,-0.0874774119808497,-2.36425194501697,-0.0206284243613482,0.0753843560814857,-0.987421870231628,N
1525788064.26102,-0.00637408100651713,-0.106053807702494,-2.37273129506924,0.00797091796994209,0.141001582145691,-0.855919420719147,N
1525788064.2706,-0.00987652861135012,-0.125356364910264,-2.38196652454316,0.067858561873436,0.176546394824982,-0.775763273239136,N
1525788064.28152,-0.0125980913380706,-0.146273197194167,-2.39048041201294,0.202755585312843,0.158477589488029,-0.81881707906723,N
1525788064.29075,-0.0145571951933428,-0.167219056116451,-2.39696517105172,0.308573603630066,0.113680005073547,-0.999511420726776,N
1525788064.3017,-0.0153808734894626,-0.186182328266947,-2.40122458806997,0.341103255748749,0.065227136015892,-1.1547577381134,N
1525788064.31586,-0.0156994031697969,-0.20198974526128,-2.40306122922241,0.352888733148575,0.0121800452470779,-1.26198279857635,N
1525788064.32177,-0.0162332503912999,-0.2137720254991,-2.40287523900458,0.28965151309967,-0.0242203176021576,-1.2984037399292,N
1525788064.33152,-0.0169567444759496,-0.222173984457315,-2.40178163595427,0.137434557080269,-0.0248550921678543,-1.26658654212952,N
1525788064.34283,-0.0178251560846156,-0.228222852885229,-2.4012519704415,0.0254339352250099,-0.0455369800329208,-1.25170111656189,N
1525788064.35192,-0.0191290305961485,-0.231707937650559,-2.40165280261588,-0.002715103328228,-0.0599319040775299,-1.29423642158508,N
1525788064.36184,-0.0206894151972466,-0.232048445256407,-2.40258781712406,0.0251078084111214,-0.0526491552591324,-1.32463359832764,N
1525788064.38256,-0.0220774194642928,-0.229000434137725,-2.40341605416285,0.0601040497422218,-0.0502463430166245,-1.33600544929504,N
1525788064.38318,-0.0226507864951438,-0.222076121652247,-2.40402974371681,0.0996683314442635,-0.0389655530452728,-1.31083393096924,N
1525788064.39177,-0.0220599526458727,-0.21159489785936,-2.40390013203123,0.131994068622589,-0.0268072187900543,-1.19914591312408,N
1525788064.40165,-0.0206307300513787,-0.198758905228868,-2.40280388976198,0.130208477377892,-0.0118143856525421,-1.0482165813446,N
1525788064.4114,-0.0188353554290021,-0.18433437691472,-2.40065449777158,0.118567034602165,-0.00778563320636749,-0.949687302112579,N
1525788064.42086,-0.0171414113130411,-0.168420178526109,-2.39793970821612,0.099936380982399,-0.014411598443985,-0.885067343711853,N
1525788064.43071,-0.0155356189230834,-0.151015640861701,-2.39484255021344,0.0662767663598061,-0.0130674242973328,-0.839839160442352,N
1525788064.44167,-0.0137198421080152,-0.131904385758891,-2.39172797954986,0.0234726704657078,-0.00685791671276093,-0.802191317081451,N
1525788064.45098,-0.0113774157789026,-0.11130923675996,-2.38894897319348,-0.013580322265625,0.010044738650322,-0.742733538150787,N
1525788064.46086,-0.00845467071949254,-0.0896850754399179,-2.38672212789773,-0.031130189076066,0.0310253128409386,-0.672511637210846,N
1525788064.47086,-0.00521922302499064,-0.0671485079832757,-2.38491804410643,-0.0384174436330795,0.0580392703413963,-0.608620941638947,N
1525788064.48135,-0.00182693355672577,-0.0439323264993878,-2.38359536538228,-0.0305082052946091,0.0816311240196228,-0.543675899505615,N
1525788064.49137,0.00178152916901794,-0.0201363377755757,-2.38261083677533,-0.00495499512180686,0.102759309113026,-0.49916672706604,N
1525788064.50091,0.00539698067564907,0.00441998693076904,-2.38183472377094,0.0146836647763848,0.123240165412426,-0.487298488616943,N
1525788064.51645,0.00928287901677423,0.0299597595242541,-2.38109695961107,-0.00557069387286901,0.145967856049538,-0.469760596752167,N
1525788064.5211,0.0138236847606827,0.0562820905963402,-2.38071075189749,-0.0268476214259863,0.173668757081032,-0.442734122276306,N
1525788064.5309,0.0192896353234412,0.0830685410168502,-2.38048580348589,-0.0346333049237728,0.195689707994461,-0.416887402534485,N
1525788064.54671,0.0258905724587123,0.110071781211101,-2.38032670433422,-0.0493821389973164,0.213365271687508,-0.40705019235611,N
1525788064.55178,0.033162654633182,0.137710740823278,-2.38031969403335,-0.0607204884290695,0.230812266469002,-0.40532124042511,N
1525788064.56089,0.0404972818545657,0.166319512147906,-2.38077714302984,-0.0855055302381516,0.258418768644333,-0.40195220708847,N
1525788064.57085,0.0475478671655919,0.195867320607295,-2.3816633138086,-0.0887506604194641,0.272315084934235,-0.375209808349609,N
1525788064.58412,0.0546834864055729,0.225924111668197,-2.38283410248799,-0.109251782298088,0.278206288814545,-0.352919101715088,N
1525788064.59127,0.0625971984644985,0.256330477443146,-2.38451328455821,-0.133296832442284,0.306846857070923,-0.346777856349945,N
1525788064.60093,0.0712031157469807,0.287590508887049,-2.38706056207558,-0.151854559779167,0.334179639816284,-0.331753492355347,N
1525788064.61295,0.0803215128149769,0.319863914365624,-2.39069291356222,-0.155801117420197,0.372451305389404,-0.280772089958191,N
1525788064.62096,0.0899453147685555,0.353259391813418,-2.39554634603186,-0.133654892444611,0.424891471862793,-0.190390110015869,N
1525788064.63096,0.0994664392307145,0.387523681569083,-2.40153243367499,-0.0993089973926544,0.459882348775864,-0.0688713788986206,N
1525788064.64183,0.108474704543773,0.42200177515349,-2.40837868833848,-0.0443820208311081,0.492305338382721,0.0694302320480347,N
1525788064.65139,0.116591777301288,0.456225977320491,-2.41557355447459,-0.00192143023014069,0.508144378662109,0.205194890499115,N
1525788064.66086,0.123537289462672,0.489214588321082,-2.42266661580976,0.0236310213804245,0.478523463010788,0.318098485469818,N
1525788064.67071,0.130620361665536,0.520348811839147,-2.4298784799834,0.0169336497783661,0.473379075527191,0.387933969497681,N
1525788064.6818,0.138842379213384,0.549563076987641,-2.43736237454548,0.0349359065294266,0.487204194068909,0.435931444168091,N
1525788064.69173,0.147714759165648,0.576650928575562,-2.44445052858648,0.070514976978302,0.492515683174133,0.494386374950409,N
1525788064.70102,0.157087224958789,0.601192953471615,-2.45065311312675,0.0708479732275009,0.50109726190567,0.539437174797058,N
1525788064.71417,0.166747584413569,0.623539785976355,-2.45655659846939,0.0532462894916534,0.499058365821838,0.553455591201782,N
1525788064.72099,0.176218728251987,0.644051948892815,-2.46243845002724,0.0455719977617264,0.49690967798233,0.559547781944275,N
1525788064.73107,0.185085688939876,0.663253454338219,-2.46826919795595,0.0682113468647003,0.493888139724731,0.555494666099548,N
1525788064.74856,0.192494335719323,0.681706350928574,-2.47387622939029,0.0894106328487396,0.5040203332901,0.555567860603333,N
1525788064.75151,0.197360851868408,0.699749103596195,-2.47928504036571,0.0728511065244675,0.50166130065918,0.558273673057556,N
1525788064.76094,0.199793305632696,0.717469145662107,-2.48450865156547,0.052273616194725,0.500360131263733,0.56680691242218,N
1525788064.77086,0.200745245397657,0.734370780463074,-2.48946284162051,0.050756111741066,0.506912231445312,0.597112834453583,N
1525788064.7816,0.200928140171352,0.749544815498218,-2.49242624417047,0.0930289775133133,0.498841047286987,0.667223453521729,N
1525788064.79106,0.200988247292445,0.761928840422451,-2.49270753375282,0.147476837038994,0.45054167509079,0.707613706588745,N
1525788064.80139,0.200640332657497,0.771978170404925,-2.48978947979311,0.134495422244072,0.375898718833923,0.648675560951233,N
1525788064.81168,0.199632943374722,0.780645135234779,-2.4857111633636,0.067361056804657,0.38357800245285,0.570799827575684,N
1525788064.82109,0.197421520841352,0.788829338037099,-2.48027265211432,0.0949075073003769,0.348048090934753,0.518884241580963,N
1525788064.83092,0.193622796632994,0.797170703228034,-2.47275721664656,0.0725538283586502,0.342319905757904,0.496070563793182,N
1525788064.8467,0.18905883899245,0.80514661827989,-2.46363468105132,-0.00911535322666168,0.339142084121704,0.53559148311615,N
1525788064.85156,0.184691690016524,0.811373046701236,-2.45469202504351,-0.0856370627880096,0.302747845649719,0.580251038074493,N
1525788064.86094,0.180698843321669,0.815298717054003,-2.44653562441863,-0.154900342226028,0.310419499874115,0.59213525056839,N
1525788064.87083,0.177493500446811,0.816831696292163,-2.43971177625506,-0.200895696878433,0.301124215126038,0.574978590011597,N
1525788064.88191,0.176043747035391,0.816114954333908,-2.43439313835126,-0.197416231036186,0.281193733215332,0.515349388122559,N
1525788064.89153,0.176647954069349,0.813627613794224,-2.43054800826352,-0.147665694355965,0.256034731864929,0.438658833503723,N
1525788064.90099,0.178148695483638,0.810794041403178,-2.42682619787304,-0.0823943912982941,0.228176116943359,0.322901606559753,N
1525788064.91514,0.179657921775486,0.809257062171678,-2.4234038174872,-0.0681440681219101,0.22688752412796,0.250676512718201,N
1525788064.92119,0.18103766992692,0.809856514379693,-2.42064484437605,-0.0782493948936462,0.223455786705017,0.298723816871643,N
0,0,0,0,0,0,0,0
1525788065.93714,0.0872247552434184,-0.0937242657735389,-2.12542386182935,-0.00534147769212723,0.0360210463404655,0.0425615906715393,N
1525788065.94811,0.0862932428508738,-0.0963729955277196,-2.12589267775298,-0.00631847977638245,0.025236077606678,-0.0105260014533997,N
1525788065.95206,0.0856691899129928,-0.0993804646439107,-2.12699507854461,0.00158870965242386,-0.0117688328027725,-0.0221027135848999,N
1525788065.96156,0.0852160604688461,-0.102116054804688,-2.12854723924549,0.0342879444360733,-0.0287117436528206,-0.105300426483154,N
1525788065.9725,0.0836867432136578,-0.103959903646123,-2.13041781410355,0.0205151587724686,-0.0200477689504623,-0.144988179206848,N
1525788065.98135,0.0815555323560038,-0.104409502939399,-2.13300197202331,-0.01374551653862,-0.00743340700864792,-0.162972033023834,N
1525788065.99126,0.0783545511218699,-0.103057952725965,-2.13594039506488,0.0318973809480667,0.00662145018577576,-0.161372780799866,N
1525788066.00131,0.0742178326168429,-0.0998207983317346,-2.13854115890144,0.0868486687541008,0.0169525593519211,-0.116146087646484,N
1525788066.01183,0.0698632428402385,-0.0958182068309779,-2.14048478664158,0.0895866602659225,0.0322580337524414,-0.0245628952980042,N
1525788066.02156,0.0653573232224352,-0.0924470904686441,-2.1420699147424,0.0490733087062836,0.0424196422100067,0.0451633334159851,N
1525788066.03141,0.0608919054500925,-0.0903259624240258,-2.1437818350631,0.0135515108704567,0.0344611257314682,0.0722789168357849,N
1525788066.04193,0.0568278212911982,-0.0893183632868022,-2.14589588130712,-0.0140445865690708,0.0100129991769791,0.0643674731254578,N
1525788066.05199,0.0529321127109427,-0.089031540266334,-2.14844630109313,-0.00895090401172638,-0.015290305018425,0.0321198701858521,N
1525788066.06166,0.0490701516908984,-0.0887224487152179,-2.15100250781466,0.00563160330057144,-0.040113665163517,-0.00118017196655273,N
1525788066.07129,0.0451705093584067,-0.0880929467106011,-2.15333401117775,0.0118284188210964,-0.0568663775920868,-0.0085863471031189,N
1525788066.08186,0.0410484605682875,-0.0874470395166969,-2.15558072999328,0.000547483563423157,-0.0524540394544601,0.00766891241073608,N
1525788066.09126,0.036860490755299,-0.0871434663058319,-2.15784655875858,0.00102267786860466,-0.0355348065495491,0.0096278190612793,N
1525788066.10144,0.0325493743013007,-0.0871921796482554,-2.15995625081982,0.0148975066840649,-0.00994856655597687,-0.0280386805534363,N
1525788066.11232,0.0281396040017203,-0.0870918721737343,-2.16176589381804,0.0321971848607063,-0.0156469792127609,-0.093219518661499,N
1525788066.12147,0.0237059626376059,-0.0864450228662533,-2.16341765814444,0.0477501265704632,-0.0238221436738968,-0.136200845241547,N
1525788066.13141,0.019889857574648,-0.0859034878365208,-2.16478248332741,0.065237283706665,-0.0369697436690331,-0.136696994304657,N
1525788066.14199,0.0175995126452424,-0.0865751718201777,-2.16574922406106,0.0773922353982925,-0.0681870356202126,-0.143136024475098,N
1525788066.15198,0.0166915144125674,-0.088888576206774,-2.16609378061056,0.0550914630293846,-0.101070150732994,-0.193570375442505,N
1525788066.16143,0.0163042416826597,-0.0923344798883131,-2.16658398088999,0.0119031369686127,-0.131082728505135,-0.303311824798584,N
1525788066.17137,0.0153546244394469,-0.0956632728216643,-2.16707390276817,0.0196130312979221,-0.143399506807327,-0.450032591819763,N
1525788066.182,0.0135044994622223,-0.0975837737710319,-2.16748050302457,0.038714699447155,-0.146501243114471,-0.595485508441925,N
1525788066.19137,0.0110537584122059,-0.0976155451168417,-2.16786649020422,0.0487067326903343,-0.13423427939415,-0.694930672645569,N
1525788066.20139,0.00876902593489942,-0.0958417798183262,-2.16770435877328,0.0538476221263409,-0.124198533594608,-0.775486350059509,N
1525788066.21205,0.00751545969485232,-0.0922397590956132,-2.16707114324169,0.0415277928113937,-0.115958504378796,-0.849829733371735,N
1525788066.22154,0.00747274002890698,-0.0866598165350697,-2.16576402505399,-0.000974901020526886,-0.0993382558226585,-0.913890898227692,N
1525788066.23142,0.00808762388112724,-0.0789541614151302,-2.16436228357512,-0.0574245229363441,-0.0698084384202957,-0.96910548210144,N
1525788066.24286,0.00923001922505782,-0.0687532720673064,-2.16297991042635,-0.097403883934021,-0.0445902347564697,-1.01970851421356,N
1525788066.25262,0.0106560061899036,-0.0559561372259252,-2.16197159185668,-0.102374963462353,-0.0181919559836388,-1.02664625644684,N
1525788066.26215,0.0121512375188316,-0.0409898475567488,-2.16101003604483,-0.100794300436974,-0.00309079885482788,-1.00295841693878,N
1525788066.27228,0.0138082132274918,-0.0241029760750511,-2.16019372859798,-0.0826514214277267,0.006554264575243,-0.986866474151611,N
1525788066.28267,0.0160865143657195,-0.00512806953246724,-2.15920651789364,-0.0780515521764755,0.0239094290882349,-0.973073422908783,N
1525788066.29238,0.0193030288065825,0.015862630508519,-2.15822035351862,-0.101223841309547,0.0681385770440102,-0.927680253982544,N
1525788066.30148,0.0232174315901738,0.0386849724845426,-2.15709916026376,-0.108143657445908,0.101221099495888,-0.888987481594086,N
1525788066.31211,0.0274143758609963,0.0635517509171928,-2.15610316703342,-0.102520398795605,0.14506721496582,-0.85786247253418,N
1525788066.32159,0.0319029172384564,0.0902191622690821,-2.15528004909613,-0.0837849900126457,0.185525298118591,-0.788722932338715,N
1525788066.3314,0.0368878857197094,0.117890732408609,-2.15467514891207,-0.0819879174232483,0.235293626785278,-0.712023377418518,N
1525788066.34533,0.0424202819605097,0.146414284722036,-2.15410083102796,-0.104423314332962,0.260485231876373,-0.665306448936462,N
1525788066.35223,0.0484199390454944,0.176093898691802,-2.15387971583718,-0.139754563570023,0.281127005815506,-0.647416710853577,N
1525788066.36154,0.0543922206813112,0.207451645894359,-2.15416358570321,-0.169319123029709,0.302646547555923,-0.614318907260895,N
1525788066.37142,0.0594792865264908,0.240704323160508,-2.15532771810033,-0.217901974916458,0.32920703291893,-0.548857629299164,N
1525788066.38208,0.0638631520229163,0.275521874690726,-2.15786276330569,-0.262309908866882,0.354461878538132,-0.460637807846069,N
1525788066.39143,0.0685179317676613,0.311547064092019,-2.16205530412407,-0.262098431587219,0.386884391307831,-0.374896943569183,N
1525788066.40158,0.0738010962143976,0.348548910667161,-2.16770722935088,-0.227625623345375,0.414440810680389,-0.25322562456131,N
1525788066.41354,0.0797952598602374,0.385187275249253,-2.17384137316375,-0.187532767653465,0.429611504077911,-0.112826585769653,N
1525788066.42155,0.087574937294661,0.420516469607032,-2.18049171419271,-0.208367884159088,0.457227945327759,-0.0118390321731567,N
1525788066.43158,0.0976485609622239,0.454125782125664,-2.1880460996347,-0.222804859280586,0.486787855625153,0.0625462532043457,N
1525788066.44679,0.109285496493488,0.486275798377474,-2.1965329856569,-0.209645062685013,0.517980575561523,0.0981351137161255,N
1525788066.45245,0.121588332226192,0.51813478996554,-2.20599933439992,-0.174384638667107,0.55220639705658,0.114650070667267,N
1525788066.46157,0.133359781045539,0.550258009538366,-2.21588227416931,-0.143550246953964,0.572864413261414,0.150134205818176,N
1525788066.47143,0.144859934617068,0.582578893845791,-2.22634800010585,-0.178495049476624,0.595024824142456,0.208441495895386,N
1525788066.4823,0.156352738074936,0.614885254185255,-2.23789308510417,-0.18676570057869,0.599508821964264,0.267691135406494,N
1525788066.49162,0.168518629003309,0.647104730458127,-2.25068788580165,-0.182504996657372,0.608539998531342,0.338670074939728,N
1525788066.50155,0.181779337856065,0.678632612522851,-2.26477730033474,-0.153343811631203,0.630857229232788,0.457256317138672,N
1525788066.51383,0.195687843242219,0.709016951375727,-2.27984711717107,-0.131849557161331,0.651515185832977,0.586007714271545,N
1525788066.5216,0.2095874384708,0.737289531058706,-2.2958433786448,-0.126923173666,0.669354200363159,0.724139273166656,N
1525788066.53156,0.223001996756838,0.762461399188244,-2.31195495258632,-0.0918890237808228,0.644637167453766,0.829789161682129,N
1525788066.54865,0.235944224368262,0.784238988045267,-2.32734552229345,-0.0601846724748611,0.614932298660278,0.871219277381897,N
1525788066.55251,0.24841236713402,0.803047373706345,-2.34154760912783,-0.034420520067215,0.579644322395325,0.872157871723175,N
1525788066.56168,0.260354262300102,0.81961844767764,-2.35490651174838,-0.011750727891922,0.551609933376312,0.876326441764832,N
1525788066.57147,0.271322607736623,0.834507588625958,-2.36695701865263,0.0175934135913849,0.555098652839661,0.901812791824341,N
1525788066.58202,0.280604612355671,0.847317586560489,-2.37770558067226,0.0133395493030548,0.563136518001556,1.00387144088745,N
1525788066.59147,0.287827113003651,0.85703727409217,-2.38694090219722,0.00658500194549561,0.562073826789856,1.08598494529724,N
1525788066.60158,0.29256141002138,0.863593864433459,-2.39448928618278,0.0178964734077454,0.545384407043457,1.08706831932068,N
1525788066.61255,0.295048230278994,0.867612975413546,-2.40010477863048,0.0269445478916168,0.508759200572968,1.05559587478638,N
1525788066.62167,0.295983231296638,0.869610704274864,-2.40440988745268,0.0298474729061127,0.471078634262085,1.03014206886292,N
1525788066.6316,0.295925833062928,0.869642444884379,-2.40744161433839,0.0260753035545349,0.454207539558411,1.02358365058899,N
1525788066.64662,0.294955532288458,0.867570281435929,-2.40940009130543,0.0147548913955688,0.441486120223999,1.04075193405151,N
1525788066.65257,0.292803113067056,0.862873610040943,-2.41015491025572,-0.0144095122814178,0.423883557319641,1.05606806278229,N
1525788066.66167,0.289101465854495,0.855579201612347,-2.40985689757457,-0.0292730927467346,0.394721388816833,1.02631747722626,N
1525788066.67152,0.284230082605543,0.8461506460789,-2.40865927332244,-0.0389389395713806,0.368775248527527,0.96662712097168,N
1525788066.68259,0.278755071862928,0.835127440501581,-2.40705069606768,-0.0257495641708374,0.35573136806488,0.925543546676636,N
1525788066.6917,0.272158344622146,0.822838156160082,-2.404653343664,-0.00628578662872314,0.356705784797668,0.898425877094269,N
1525788066.70161,0.263823492757593,0.809562031671497,-2.40159327097931,-0.00569137930870056,0.355760037899017,0.885979652404785,N
1525788066.71383,0.254149613173726,0.795015509315013,-2.39806744109549,-0.0419855266809464,0.361793160438538,0.901823878288269,N
1525788066.72175,0.244066907924927,0.778491215020408,-2.39456441700467,-0.0794283449649811,0.382091879844666,0.910248816013336,N
1525788066.73159,0.234209391209133,0.759785424381502,-2.39121001461083,-0.0956027954816818,0.411834120750427,0.919988334178925,N
1525788066.7467,0.224273830185151,0.738541722545189,-2.38811266028794,-0.0872432738542557,0.432090938091278,0.923858761787415,N
1525788066.75249,0.213992097746993,0.714817398816906,-2.38508129982507,-0.0636840611696243,0.458473324775696,0.893153846263885,N
1525788066.76177,0.202475969392414,0.688706981003515,-2.38166780795271,-0.0270397663116455,0.442973494529724,0.842752635478973,N
1525788066.77164,0.190599792951753,0.660225712954809,-2.37746818303435,-0.032738521695137,0.449659883975983,0.766959428787231,N
1525788066.78284,0.179964633708817,0.62922872059317,-2.37305074645904,-0.0758968442678452,0.467305541038513,0.69950795173645,N
1525788066.79168,0.170847609798073,0.595549852181122,-2.36880451393326,-0.12376444041729,0.491475522518158,0.638526320457458,N
1525788066.80171,0.162617084257418,0.559726656256753,-2.36541247087879,-0.181796655058861,0.517755746841431,0.528099775314331,N
1525788066.81386,0.154919815962115,0.523219456153048,-2.3637252776333,-0.216940194368362,0.545814037322998,0.401922643184662,N
1525788066.8222,0.147096544088694,0.486728843248797,-2.36373693245313,-0.169493034482002,0.549905717372894,0.328271508216858,N
1525788066.8315,0.137679520503962,0.449598548858146,-2.36430785932811,-0.0792637467384338,0.52986466884613,0.258035480976105,N
1525788066.84682,0.12587442083609,0.411537585239688,-2.36397131743165,-0.0280242264270782,0.480890601873398,0.126800239086151,N
1525788066.85251,0.113206957485215,0.373273986245672,-2.36258923709486,-0.064201220870018,0.40893167257309,-0.0828021764755249,N
1525788066.86169,0.101171724648929,0.336449427160246,-2.36090270222444,-0.151351481676102,0.338865697383881,-0.282466888427734,N
1525788066.87164,0.0907882327991215,0.302342320578922,-2.36023714047304,-0.287066966295242,0.273983895778656,-0.39365029335022,N
1525788066.8823,0.0823964741586509,0.271275019114124,-2.36200197143763,-0.406335055828094,0.280197590589523,-0.366605520248413,N
1525788066.89162,0.0747149210989905,0.241158064399082,-2.3666614357397,-0.43318784236908,0.342968583106995,-0.228439688682556,N
1525788066.90171,0.0665826594250963,0.210192224455223,-2.37310591654327,-0.348821580410004,0.359236896038055,-0.172751069068909,N
1525788066.91371,0.0573748011949837,0.178329188069851,-2.37995478020394,-0.221946030855179,0.318849742412567,-0.251807153224945,N
1525788066.92175,0.0474125514582611,0.146540513216041,-2.38638134429128,-0.135525122284889,0.24945592880249,-0.426899135112762,N
1525788066.94833,0.0372738661870057,0.116964544536584,-2.39233280434454,-0.126839101314545,0.161070585250854,-0.608825504779816,N
1525788066.94952,0.0278853729490936,0.0905398064644129,-2.3984919625497,-0.177608862519264,0.11672230809927,-0.644375681877136,N
1525788066.95237,0.0193739173698941,0.066273807384629,-2.40556182833345,-0.241696506738663,0.121263757348061,-0.542604744434357,N
1525788066.96184,0.0114915024665505,0.0428533049049882,-2.41425315122256,-0.27400815486908,0.140221774578094,-0.449561893939972,N
1525788066.97177,0.00376541880511236,0.0202411860354204,-2.42471689920683,-0.224956050515175,0.195288628339767,-0.403913736343384,N
1525788066.98177,-0.0048923236954891,-0.00210704120367801,-2.43598819758407,-0.126226484775543,0.244444474577904,-0.368346095085144,N
1525788066.99156,-0.0154546956357137,-0.025167609818702,-2.44679683152213,-0.0117419753223658,0.245052948594093,-0.445260286331177,N
1525788067.00184,-0.0267918074839516,-0.0475090667514469,-2.45638472243303,0.0693761706352234,0.201791644096375,-0.663168966770172,N
1525788067.01274,-0.0362517904298608,-0.0682133347094056,-2.46478599641158,0.0812492817640305,0.18179377913475,-0.750982224941254,N
1525788067.02188,-0.0434404993453527,-0.0886485368518796,-2.47218594762742,0.113431483507156,0.157927483320236,-0.764799892902374,N
1525788067.03177,-0.0494994988927046,-0.108797156742481,-2.47843691471121,0.126579314470291,0.142012447118759,-0.843800127506256,N
1525788067.04187,-0.0553504646371376,-0.127645602686408,-2.48373866125206,0.117326349020004,0.0938616394996643,-0.943492531776428,N
1525788067.05251,-0.0607855552415193,-0.144929496717652,-2.48842642673356,0.0698311030864716,0.0263994783163071,-1.03121709823608,N
1525788067.06251,-0.0646994001280886,-0.161028909922395,-2.49332848396567,-0.010538250207901,-0.0220129638910294,-1.07844841480255,N
1525788067.07242,-0.066795635403298,-0.176227331387408,-2.49915138369314,-0.0416333600878716,-0.0449607670307159,-1.18098282814026,N
1525788067.08316,-0.0681470760610192,-0.189121889433212,-2.50516591602496,0.0395364463329315,-0.0739370584487915,-1.36059463024139,N
1525788067.09273,-0.0700343201050179,-0.197036243403903,-2.5104675703887,0.106586970388889,-0.0837032496929169,-1.52124929428101,N
1525788067.10248,-0.072900693875274,-0.198728587839697,-2.51475835407316,0.139197409152985,-0.0936938524246216,-1.52481842041016,N
1525788067.11421,-0.07611371098392,-0.195468778780906,-2.51838469527956,0.138587549328804,-0.0929843485355377,-1.38005292415619,N
1525788067.12248,-0.0788552038782466,-0.18923792743642,-2.52153973125534,0.158498212695122,-0.0793458372354507,-1.19682264328003,N
1525788067.13186,-0.0808626049522131,-0.181537047193739,-2.52389753987497,0.192621618509293,-0.0626674294471741,-1.03060233592987,N
1525788067.14202,-0.0820934700769911,-0.173398443654146,-2.52521754848401,0.204825565218925,-0.0621487498283386,-0.90411639213562,N
1525788067.15219,-0.0820989585776518,-0.165454945133737,-2.52564440578161,0.168182373046875,-0.0721412599086761,-0.826991498470306,N
1525788067.16188,-0.0809429549007101,-0.157476154395129,-2.52565547967529,0.123143300414085,-0.0782891064882278,-0.805142879486084,N
1525788067.17165,-0.0794855498901518,-0.148660593749883,-2.52523372863257,0.100193582475185,-0.0874294340610504,-0.810798287391663,N
1525788067.18193,-0.0781495394430578,-0.138180105929323,-2.52443190223193,0.0696049332618713,-0.0931240916252136,-0.802334368228912,N
1525788067.19177,-0.0767838622235539,-0.125792486201831,-2.52352020570645,0.0267096236348152,-0.0832399278879166,-0.756491124629974,N
1525788067.20167,-0.0755165181709707,-0.111595159670456,-2.52270103747073,0.00740955770015717,-0.070241242647171,-0.697727501392365,N
1525788067.21232,-0.074338159786949,-0.0958523176553226,-2.52204610204736,-0.00912479311227798,-0.0406671538949013,-0.62152099609375,N
1525788067.2218,-0.0729064043788528,-0.0795749405588363,-2.52168477234621,-0.00813817977905273,-0.0137103497982025,-0.543669581413269,N
1525788067.23175,-0.0706460704355246,-0.0634430042381756,-2.52138631786725,-0.00706933438777924,0.0103757977485657,-0.512832522392273,N
1525788067.24465,-0.0671834185704396,-0.0476311005963955,-2.52108274503703,-0.00855055451393127,0.0436497256159782,-0.525711178779602,N
1525788067.25268,-0.0623599886377704,-0.0316163008202432,-2.52060519737325,-0.00263771414756775,0.0664419457316399,-0.570954501628876,N
1525788067.26178,-0.0564033904179776,-0.0147962907566656,-2.52011633720751,-0.019377313554287,0.10405495762825,-0.599111676216125,N
1525788067.27183,-0.0498423759953254,0.00320617825780971,-2.51979081312999,-0.0219711139798164,0.140596315264702,-0.601390421390533,N
1525788067.28202,-0.0430941938491543,0.02229845184568,-2.51961109949909,-0.0242058522999287,0.186343848705292,-0.593858659267426,N
1525788067.2918,-0.0361845239297235,0.0423175700357333,-2.51935386806622,-0.0223732143640518,0.217597901821136,-0.591454029083252,N
1525788067.30203,-0.0288273309509902,0.0632951849418104,-2.51874796587644,-0.00961023569107056,0.242528438568115,-0.617834627628326,N
1525788067.31229,-0.0210318990261076,0.085818545272209,-2.51757881175761,0.00316120684146881,0.249119609594345,-0.657358169555664,N
1525788067.3219,-0.0128335603304225,0.110730221105385,-2.51617835551624,-0.0227983631193638,0.272277772426605,-0.647792458534241,N
1525788067.33196,-0.00430370651194268,0.137672785626067,-2.51491258060608,-0.062829926609993,0.292984753847122,-0.564036548137665,N
1525788067.342,0.00472419924001045,0.165923606653684,-2.51420615296602,-0.0902000740170479,0.312242805957794,-0.47492641210556,N
1525788067.35238,0.0141831335833512,0.195014790399617,-2.51402849466924,-0.0875527411699295,0.330942302942276,-0.391139447689056,N
1525788067.36189,0.0237905625438565,0.224690151016761,-2.51425842260815,-0.0834320485591888,0.347712755203247,-0.327887654304504,N
1525788067.37176,0.0333662111399926,0.254964992488301,-2.51482064138671,-0.093789741396904,0.381133049726486,-0.281477928161621,N
1525788067.38227,0.0429944528018421,0.286044504447969,-2.51597660772133,-0.0967920273542404,0.394723773002625,-0.212814271450043,N
1525788067.3918,0.053094750258487,0.317158229703321,-2.517834144968,-0.109596565365791,0.409203588962555,-0.124409794807434,N
1525788067.402,0.0642147101809046,0.348030955211241,-2.52062605036547,-0.09927898645401,0.427610576152802,-0.0636461973190308,N
1525788067.41221,0.0758793204022258,0.378750057775826,-2.52413787348867,-0.0733483582735062,0.444100230932236,-0.000608980655670166,N
1525788067.42175,0.0875019194465453,0.409066706726448,-2.5280452791045,-0.077677495777607,0.459322422742844,0.0498007535934448,N
1525788067.43186,0.0991804891746172,0.439771399768117,-2.53261230669635,-0.0827908888459206,0.488537818193436,0.0770379900932312,N
1525788067.44837,0.110554475363661,0.471369058759841,-2.53817024195187,-0.0785833522677422,0.513310551643372,0.148768126964569,N
1525788067.45243,0.121321750638084,0.503128765786521,-2.5446690707741,-0.0607387125492096,0.534323453903198,0.289072275161743,N
1525788067.46198,0.131439176778455,0.533772870537971,-2.55160434861633,-0.0381683707237244,0.531856298446655,0.420270800590515,N
1525788067.47192,0.141535473512451,0.562017621442773,-2.55861441916056,-0.0339160561561584,0.50861781835556,0.519467771053314,N
1525788067.48243,0.152563333686832,0.587720716869802,-2.56575037617927,-0.014121800661087,0.494620680809021,0.55310070514679,N
1525788067.49176,0.163969001020275,0.611289361392185,-2.57230881000255,0.0329664796590805,0.472895383834839,0.551516175270081,N
1525788067.50185,0.174617533424607,0.63375498564403,-2.57816151328698,0.0408831834793091,0.470470607280731,0.549018323421478,N
1525788067.51247,0.184211977292913,0.65532676770978,-2.58375851832422,0.00182132422924042,0.473065793514252,0.610718071460724,N
1525788067.52193,0.193296442038076,0.675244523801816,-2.58964381376696,-0.0138473808765411,0.465694904327393,0.696772933006287,N
1525788067.53189,0.201807202177412,0.692760670184573,-2.59538167087473,0.00834652781486511,0.445106148719788,0.761712789535522,N
1525788067.54202,0.209140495687714,0.707759262517264,-2.60011239190602,0.049201637506485,0.416429281234741,0.773445665836334,N
1525788067.55234,0.215143578022412,0.720519246661043,-2.60287633714444,0.0824002325534821,0.379471004009247,0.733146905899048,N
1525788067.56187,0.22003247971926,0.731618245414921,-2.60383910005207,0.0787124037742615,0.353270590305328,0.67486959695816,N
1525788067.57275,0.223688429927955,0.741574955298416,-2.60362734359099,0.0395022630691528,0.343327283859253,0.631036400794983,N
1525788067.58241,0.22550304931952,0.750720218767231,-2.60336366923356,-0.0231888294219971,0.330526769161224,0.625099658966064,N
1525788067.59184,0.225845281188053,0.758259227139551,-2.60485883567685,-0.105864092707634,0.312261939048767,0.607849955558777,N
1525788067.60209,0.226402332977792,0.764333563080648,-2.6098125423704,-0.1583571434021,0.275170683860779,0.489524722099304,N
1525788067.61543,0.228828431236953,0.770503011763975,-2.61794112084906,-0.137851387262344,0.265282869338989,0.384951829910278,N
1525788067.62222,0.232069515418102,0.777762675102464,-2.62687632916673,0.000761136412620544,0.315639734268188,0.343775868415833,N
1525788067.63196,0.234427489464994,0.786137092086038,-2.633330561424,0.165780559182167,0.330004572868347,0.358781337738037,N
1525788067.64194,0.235130849905538,0.795130191037121,-2.63493310550523,0.290336847305298,0.279765903949738,0.405198931694031,N
1525788067.65238,0.234116919942526,0.80384613104281,-2.63123735601259,0.26740688085556,0.274412751197815,0.444741129875183,N
1525788067.66189,0.231924206161769,0.811300265685816,-2.62344665317868,0.236052572727203,0.268716394901276,0.498566150665283,N
1525788067.67194,0.226256749425839,0.817074283063883,-2.61122385075069,0.204280585050583,0.283818960189819,0.554106891155243,N
1525788067.68258,0.214658476794516,0.820036119330646,-2.59560759336329,0.142143443226814,0.188369572162628,0.505740761756897,N
1525788067.69184,0.200673505243066,0.819774716935566,-2.57991997416172,-0.0439937859773636,0.142887890338898,0.444494843482971,N
1525788067.70188,0.187747348477492,0.817020029359249,-2.56683250047709,-0.167657151818275,0.107344448566437,0.336356341838837,N
0,0,0,0,0,0,0,0
1525788069.73554,0.0297932083758866,-0.102393716319857,-2.2261364757202,0.0871274769306183,-0.0256462842226028,-0.00122356414794922,N
1525788069.74753,0.0284056015220239,-0.107248179056739,-2.22676253099597,0.0800988078117371,-0.0656608641147614,-0.19555401802063,N
1525788069.75293,0.0275411711462028,-0.111511152392321,-2.22591656035814,0.0723190158605576,-0.0875832960009575,-0.440944492816925,N
1525788069.76273,0.027044032005777,-0.113352666188941,-2.22414488370702,0.00914354436099529,-0.102825656533241,-0.630590677261353,N
1525788069.77262,0.0265671281655258,-0.112623881692492,-2.22247833451183,-0.07635298371315,-0.122288897633553,-0.69638329744339,N
1525788069.78283,0.0264150231494975,-0.110154652724057,-2.22194739841398,-0.151526525616646,-0.128318846225739,-0.688689112663269,N
1525788069.79274,0.0263931046118164,-0.107119101328083,-2.22286413220508,-0.180749282240868,-0.136104419827461,-0.659810364246368,N
1525788069.8027,0.026489608469245,-0.103938912580516,-2.22537437887085,-0.155173525214195,-0.102317541837692,-0.679207623004913,N
1525788069.8141,0.0270987675064493,-0.10018899164191,-2.22835749440409,-0.0811435356736183,-0.0917969793081284,-0.723092436790466,N
1525788069.82267,0.0280967907416404,-0.0958094445183556,-2.23140647327616,-0.024195333942771,-0.0713556855916977,-0.762684762477875,N
1525788069.83269,0.0295768592493323,-0.0906052637939755,-2.23378574069589,0.0254041031002998,-0.047726221382618,-0.816778004169464,N
1525788069.84335,0.0316732108825617,-0.0839950743670265,-2.23518871726077,0.0784901231527328,-0.0346409752964973,-0.866482555866241,N
1525788069.85326,0.0340986149039102,-0.0755600010219704,-2.23558167457537,0.073366105556488,-0.00851729512214661,-0.882903754711151,N
1525788069.86276,0.0365912052671843,-0.0654363780434732,-2.2355643199936,0.0312442779541016,0.0361422970890999,-0.86228996515274,N
1525788069.87261,0.0388319961603003,-0.0539736950055036,-2.23535062967888,-0.00156477466225624,0.0669784098863602,-0.844356834888458,N
1525788069.88295,0.0407961458833216,-0.0411305360609792,-2.2353885157197,-0.0156496278941631,0.0924564972519875,-0.851698458194733,N
1525788069.89268,0.0429834690778046,-0.0266737676486699,-2.23555242744587,-0.0195784866809845,0.124864429235458,-0.867566287517548,N
1525788069.90281,0.0456876163220752,-0.0103176647251529,-2.23598377858174,-0.0135800614953041,0.154569000005722,-0.87803453207016,N
1525788069.91316,0.0490243937079258,0.00800276097809039,-2.23642285177374,0.00415843352675438,0.197867780923843,-0.867215514183044,N
1525788069.92283,0.0529641106127422,0.028272631270671,-2.23661175483316,0.0363152027130127,0.222772657871246,-0.828339457511902,N
1525788069.93272,0.05769097463694,0.0505147802618138,-2.2360474454885,0.0421460159122944,0.243501722812653,-0.796577274799347,N
1525788069.94329,0.0634555030056726,0.074662272529167,-2.23519578130605,0.000652290880680084,0.265571922063828,-0.734941244125366,N
1525788069.95318,0.0705439623152231,0.0999860503031691,-2.23424884816024,-0.0436746850609779,0.305294394493103,-0.648658812046051,N
1525788069.96263,0.0791494656308982,0.125794088670499,-2.2333100755549,-0.0815701484680176,0.338719427585602,-0.58135062456131,N
1525788069.97266,0.088963729903681,0.152082980167067,-2.23267068951853,-0.127722650766373,0.365166217088699,-0.559900224208832,N
1525788069.98272,0.0995572963074719,0.17948302072494,-2.23266311789271,-0.178027004003525,0.403099775314331,-0.579636633396149,N
