Time,Roll,Pitch,Yaw,AccelX,AccelY,AccelZ,Letter
1525788581.10912,0.165551396964452,0.273018083171099,-1.98830218574192,0.106596916913986,0.0226601958274841,0.057385265827179,Z
1525788581.11945,0.166626946341988,0.273761222924583,-1.98634369006362,0.0654933601617813,0.0181877613067627,0.01041579246521,Z
1525788581.12769,0.167427553502894,0.274621011763204,-1.98425974427359,0.0287766009569168,0.00287163257598877,-0.0334447026252747,Z
1525788581.13756,0.167568072894036,0.275872709603371,-1.98235794524964,0.00971804559230804,0.00711271166801453,-0.0554091334342957,Z
1525788581.14755,0.167262764001675,0.277537218986802,-1.9810137286266,-0.00389364361763,0.0111705660820007,-0.0177836418151855,Z
1525788581.15759,0.167033230647006,0.279155228586004,-1.97988317821407,-0.00341895222663879,0.0158848762512207,0.0188782811164856,Z
1525788581.16794,0.166773615663289,0.280080948628316,-1.97894597726243,0.00527715682983398,0.0109762847423553,0.0283724069595337,Z
1525788581.17758,0.166579384620502,0.280301518897617,-1.9780402004066,0.0107051134109497,-0.00336861610412598,0.00489044189453125,Z
1525788581.18803,0.166575801444714,0.280210625723283,-1.97730719490372,0.0215228199958801,-0.0140913426876068,-0.0165227651596069,Z
1525788581.19768,0.166753284540204,0.280160098344838,-1.97647582313847,0.0260977745056152,-0.0110118389129639,-0.0245176553726196,Z
1525788581.20759,0.16691510153457,0.280262606781704,-1.97557449416766,0.0170380175113678,-0.0106081664562225,-0.015477180480957,Z
1525788581.2185,0.167044194268027,0.280359407663447,-1.97447806601732,-0.00337405502796173,-0.00699037313461304,0.00211495161056519,Z
1525788581.22782,0.167196339339186,0.280273294385045,-1.97347434579371,-0.0167668163776398,-0.00655430555343628,0.00673753023147583,Z
1525788581.2376,0.16734419157479,0.28003572580497,-1.97256145581645,-0.0193440020084381,-0.00800332427024841,0.00528329610824585,Z
1525788581.24758,0.167438250204015,0.279736137565741,-1.97188333415879,-0.0109477788209915,-0.00496485829353333,-0.00841355323791504,Z
1525788581.25837,0.167365234746814,0.279571242207575,-1.97119002448122,-0.00199030339717865,-0.0093194842338562,-0.0152387022972107,Z
1525788581.26785,0.167210056741752,0.279579121846071,-1.97056651792262,-0.0107845216989517,-0.00729775428771973,-0.00514525175094604,Z
1525788581.27758,0.167190696613071,0.279448518122977,-1.97002526046086,-0.0217737555503845,-0.0093611478805542,-0.00408428907394409,Z
1525788581.28814,0.167417045410045,0.279161574291728,-1.96974237520586,-0.0250684767961502,-0.0109187364578247,-0.011900782585144,Z
1525788581.29764,0.167637009855967,0.278863002247035,-1.96963895714545,-0.0323402583599091,-0.0097409188747406,-0.0139454007148743,Z
1525788581.30761,0.167868462376293,0.278508243865935,-1.96996634639693,-0.031355232000351,-0.00300189852714539,-0.0134285688400269,Z
1525788581.32543,0.168136733653207,0.278196477469215,-1.97045826614852,-0.0139694511890411,0.00715059041976929,-0.019231379032135,Z
1525788581.32763,0.168350100789851,0.278052005528708,-1.97091608899088,-0.00612172484397888,0.0128863155841827,-0.018372118473053,Z
1525788581.33763,0.168620507582659,0.278098651175162,-1.97108619162077,-0.0101906061172485,0.0186074376106262,-0.00829648971557617,Z
1525788581.34752,0.168942936923547,0.278138509495842,-1.97105274659105,-0.0279809832572937,0.0240778923034668,0.00151306390762329,Z
1525788581.35869,0.169246953724985,0.27803356938167,-1.97075573003197,-0.0457300543785095,0.0222222208976746,-0.00686955451965332,Z
1525788581.36819,0.169400475246285,0.277825350627363,-1.97045131196938,-0.0696736574172974,0.0212285220623016,-0.0170462727546692,Z
1525788581.37757,0.16948473986597,0.277431252341615,-1.97018529524934,-0.1153344810009,0.0190947651863098,-0.0248880386352539,Z
1525788581.39035,0.169603526355004,0.276674928511449,-1.97039482307586,-0.152789756655693,0.0201830863952637,-0.0449365377426147,Z
1525788581.39765,0.169719636693789,0.27557590591235,-1.97104776075671,-0.169246837496758,0.0203616619110107,-0.082059383392334,Z
1525788581.40772,0.169779013313546,0.274458416473295,-1.97222911650738,-0.169476509094238,0.0241384506225586,-0.123762130737305,Z
1525788581.42349,0.169592010556624,0.273760576283089,-1.97349152182916,-0.175220847129822,0.0230089128017426,-0.155863642692566,Z
1525788581.4278,0.169037680572482,0.273599357578582,-1.97481440270297,-0.196979969739914,0.0178945660591125,-0.167815744876862,Z
1525788581.43764,0.168272617721446,0.273909499259206,-1.97595246116761,-0.245189964771271,0.0161790251731873,-0.178211808204651,Z
1525788581.44758,0.167412874929815,0.274580329443462,-1.97730588201911,-0.297871440649033,0.00966840982437134,-0.19117683172226,Z
1525788581.45834,0.166496011795887,0.275551238365874,-1.97910067783346,-0.349661350250244,0.000577777624130249,-0.19466245174408,Z
1525788581.46819,0.165618802145197,0.27678789351971,-1.98190174359545,-0.391467332839966,-0.000200808048248291,-0.198578655719757,Z
1525788581.47762,0.165034378101822,0.27830307062107,-1.98575265195195,-0.398580849170685,0.0124563276767731,-0.203992068767548,Z
1525788581.49027,0.164664358147093,0.280308759817549,-1.9906575312721,-0.394431352615356,0.0235090553760529,-0.191051423549652,Z
1525788581.49839,0.164412707347785,0.282695401082795,-1.99633920170588,-0.393534958362579,0.0386801660060883,-0.162475824356079,Z
1525788581.50763,0.164546391620217,0.2851505887798,-2.00285448559081,-0.378808945417404,0.0716309547424316,-0.152127981185913,Z
1525788581.52389,0.164862434390279,0.287687863251056,-2.00989314454999,-0.348137199878693,0.0881792306900024,-0.159232437610626,Z
1525788581.52778,0.165357364360818,0.290558830507763,-2.01726703406287,-0.332632005214691,0.10142907500267,-0.157691717147827,Z
1525788581.53767,0.166346280580777,0.293697037667032,-2.02483277705372,-0.342709422111511,0.115054428577423,-0.141420662403107,Z
1525788581.54764,0.16773805228599,0.29686984474818,-2.03280060964204,-0.347653090953827,0.0941030979156494,-0.150761783123016,Z
1525788581.5594,0.169437541160695,0.300285117551187,-2.04118030226835,-0.359690636396408,0.0687570571899414,-0.161530911922455,Z
1525788581.56825,0.171541329902591,0.304081063001753,-2.05038160614585,-0.385022610425949,0.0696344375610352,-0.172933757305145,Z
1525788581.57783,0.173821447581771,0.308445196615989,-2.06053744225053,-0.423193097114563,0.0596963465213776,-0.165921270847321,Z
1525788581.59061,0.176800438572647,0.313233757744909,-2.07213391584123,-0.450190216302872,0.0532538294792175,-0.132396697998047,Z
1525788581.5977,0.181271959498851,0.318031187472666,-2.08528039191845,-0.437460362911224,0.0550829470157623,-0.102804481983185,Z
1525788581.60774,0.187089260036965,0.322782441978908,-2.09985489647647,-0.396502077579498,0.0778876841068268,-0.0691691637039185,Z
1525788581.62323,0.19394685411055,0.327459639190329,-2.11547290900447,-0.350674241781235,0.0980516672134399,-0.0156075954437256,Z
1525788581.62777,0.20146929512308,0.331678221004803,-2.13185785329043,-0.312539398670197,0.118660032749176,0.0221525430679321,Z
1525788581.63772,0.209655510731463,0.335146734574964,-2.14870992099357,-0.261576354503632,0.130253553390503,0.0234296321868896,Z
1525788581.64767,0.218380900594446,0.338111474596676,-2.16606388239895,-0.212256699800491,0.146006613969803,-0.0141274929046631,Z
1525788581.65863,0.226978995726021,0.341223510453843,-2.18384740686494,-0.182306170463562,0.144073307514191,-0.0520548224449158,Z
1525788581.66822,0.235173759685821,0.345192717224046,-2.20250601183734,-0.142957404255867,0.138701498508453,-0.0663681030273438,Z
1525788581.67803,0.242511278503897,0.350551637486822,-2.22196397936353,-0.114361047744751,0.123964041471481,-0.030910849571228,Z
1525788581.69042,0.248897055788338,0.357034103054583,-2.24222116101962,-0.116558045148849,0.116952955722809,0.0568385720252991,Z
1525788581.69783,0.255070094701546,0.363899373634074,-2.26318582792382,-0.104336261749268,0.101526439189911,0.146467745304108,Z
1525788581.70789,0.261434677527068,0.370461714737107,-2.28471369282534,-0.0819357931613922,0.0859991014003754,0.231173932552338,Z
1525788581.7236,0.267835317541792,0.375906380384103,-2.30689401583154,-0.0425524711608887,0.0781295895576477,0.265952885150909,Z
1525788581.7278,0.274334986483548,0.380189379298188,-2.32977613009199,0.00257259607315063,0.0844142138957977,0.282053530216217,Z
1525788581.73766,0.281750978418488,0.383175894729168,-2.35310507835288,0.0575239658355713,0.0998353362083435,0.348964810371399,Z
1525788581.74774,0.291060355627547,0.384063786397901,-2.3761197028399,0.116658568382263,0.116787254810333,0.385666489601135,Z
1525788581.75837,0.301776804337002,0.382720235376832,-2.39847785470036,0.184460431337357,0.148484945297241,0.345951676368713,Z
1525788581.76823,0.312075814703497,0.380318865479879,-2.42010414177199,0.254454761743546,0.17608717083931,0.275938153266907,Z
1525788581.78296,0.320927113245801,0.378056495401381,-2.44124351383333,0.246380031108856,0.173985540866852,0.274174809455872,Z
1525788581.79291,0.328269180377763,0.376615929810446,-2.46206697963414,0.381450027227402,0.232704877853394,0.200860977172852,Z
1525788581.79786,0.334061452937058,0.376047878997816,-2.48241343280695,0.466040134429932,0.248823940753937,0.207485616207123,Z
1525788581.80775,0.33835059698972,0.376253068436058,-2.50157699390891,0.552280128002167,0.26064196228981,0.232114613056183,Z
1525788581.82327,0.342361012837612,0.376862280923819,-2.51883068616691,0.630687594413757,0.282341927289963,0.328421533107758,Z
1525788581.82778,0.346784799027918,0.376863495320442,-2.53327214837345,0.683151602745056,0.290491223335266,0.41733318567276,Z
1525788581.83961,0.351147061269159,0.375558016384491,-2.54442726125561,0.694891571998596,0.301270484924316,0.460280895233154,Z
1525788581.84778,0.35486780911341,0.373102075095304,-2.55266754821045,0.689012169837952,0.306354582309723,0.467631995677948,Z
1525788581.85883,0.357361909385431,0.370034468610075,-2.55875115247376,0.676100313663483,0.298659294843674,0.474777936935425,Z
1525788581.86832,0.358113860072356,0.366993157303557,-2.56349792366128,0.641002058982849,0.302322387695312,0.499255418777466,Z
1525788581.87785,0.356535545074014,0.364042651960298,-2.56735613055956,0.635895371437073,0.298437654972076,0.552135288715363,Z
1525788581.89074,0.352911986762114,0.360669393181498,-2.57027590952686,0.643784284591675,0.293543934822083,0.58820116519928,Z
1525788581.8978,0.348093634660159,0.356495230535767,-2.57181744950166,0.676098585128784,0.293160080909729,0.60774302482605,Z
1525788581.90795,0.342635851052385,0.351397144355536,-2.57136059427128,0.685734391212463,0.302522897720337,0.608224391937256,Z
1525788581.92336,0.336609486669998,0.345313054737714,-2.56831116679914,0.67466676235199,0.305517017841339,0.601220548152924,Z
1525788581.92789,0.330573164025487,0.338013118220297,-2.56270450018983,0.642038822174072,0.292962789535522,0.594224452972412,Z
1525788581.93781,0.324718352691835,0.329388227050017,-2.5547739300792,0.606770634651184,0.279000103473663,0.566498577594757,Z
1525788581.94777,0.317917047081044,0.319702477128784,-2.54492180459982,0.580951392650604,0.248610287904739,0.50101500749588,Z
1525788581.95799,0.309559665510465,0.309301180943707,-2.53326622453008,0.54674631357193,0.23194432258606,0.438473999500275,Z
1525788581.96846,0.301398455213743,0.298227312986717,-2.52039949033062,0.50006115436554,0.239550709724426,0.384542047977448,Z
1525788581.97774,0.293809619534088,0.286703565560713,-2.50611022753806,0.436026602983475,0.25073316693306,0.349825382232666,Z
1525788581.99051,0.286565890705443,0.274994120993417,-2.49076753399301,0.358346968889236,0.264720618724823,0.330466747283936,Z
1525788581.99765,0.28002429786859,0.263181566917294,-2.47545581258739,0.315245062112808,0.265128254890442,0.347176969051361,Z
1525788582.00765,0.273723039728948,0.251078634012474,-2.46075706397248,0.319182246923447,0.262960016727448,0.391964495182037,Z
1525788582.02118,0.266630507401627,0.237968109800615,-2.44606130380023,0.373642444610596,0.26826024055481,0.391809284687042,Z
1525788582.02789,0.25825056134558,0.223335274736101,-2.4302060653809,0.4324871301651,0.25978285074234,0.308334946632385,Z
1525788582.03796,0.249425656202139,0.20729026968705,-2.4121389670957,0.432387232780457,0.248243629932404,0.196798324584961,Z
1525788582.04783,0.241351291940011,0.190115772674601,-2.39150895564609,0.377687752246857,0.235893368721008,0.102491974830627,Z
1525788582.05865,0.235417782786281,0.172489910178373,-2.36881235161048,0.253808856010437,0.233311861753464,0.045373797416687,Z
1525788582.068,0.23197014175414,0.154775007857924,-2.3456366794363,0.112040415406227,0.232984706759453,0.0541567802429199,Z
1525788582.07791,0.230118596227085,0.136468095553226,-2.32359244520521,0.0561016499996185,0.236936017870903,0.0710476636886597,Z
1525788582.08843,0.228093330632281,0.116912459974985,-2.30283693207627,0.0766772329807281,0.236198917031288,0.0143856406211853,Z
1525788582.09791,0.22478811196898,0.0960795041707095,-2.28193833687602,0.128637880086899,0.19732640683651,-0.146079301834106,Z
1525788582.10786,0.221337807989674,0.0748671888144444,-2.26012595371642,0.124540075659752,0.17062246799469,-0.363691389560699,Z
1525788582.1187,0.219366075220206,0.0554860723206833,-2.23765801506975,0.0764556527137756,0.163184657692909,-0.486480295658112,Z
1525788582.12806,0.219072085375498,0.0388997491832398,-2.21523244034207,0.0133854895830154,0.150370657444,-0.473460972309113,Z
1525788582.13789,0.220412138169042,0.0247074075412833,-2.19344289533561,-0.0753918588161469,0.162201836705208,-0.377090513706207,Z
1525788582.14786,0.222343975260303,0.0120364390735264,-2.1735401184422,-0.115642115473747,0.182263195514679,-0.262617707252502,Z
1525788582.15802,0.222664708671444,-0.000278340226918391,-2.15505377269001,-0.11993819475174,0.190426006913185,-0.191359341144562,Z
1525788582.16798,0.219905662672316,-0.0137295694862869,-2.13671228208815,-0.111503839492798,0.165866822004318,-0.247989892959595,Z
1525788582.17801,0.216259697363177,-0.0284611851326207,-2.11756070698778,-0.125837489962578,0.111572563648224,-0.439307630062103,Z
1525788582.18871,0.214195862534553,-0.0430521797990359,-2.09791906538804,-0.16433010995388,0.0846008881926537,-0.619354128837585,Z
1525788582.19799,0.213991888473928,-0.0553488592634894,-2.07841371043781,-0.238434910774231,0.0561448484659195,-0.706098675727844,Z
1525788582.20798,0.214641630442571,-0.0642684277887278,-2.06016991001908,-0.339632749557495,0.0479584187269211,-0.636231422424316,Z
1525788582.21877,0.215371682627873,-0.0705535348540517,-2.04449657189147,-0.377531260251999,0.0720373317599297,-0.4750115275383,Z
1525788582.22818,0.215240438993442,-0.0756001155638135,-2.0315454032887,-0.345815271139145,0.092135451734066,-0.324159443378448,Z
1525788582.23884,0.212705561077639,-0.0808642930862715,-2.01996111153566,-0.268230974674225,0.0992470011115074,-0.261204361915588,Z
1525788582.24793,0.207824991277567,-0.0872846887503348,-2.00805929454099,-0.254023879766464,0.0728602781891823,-0.331151187419891,Z
1525788582.25806,0.203425140454924,-0.0942661916466372,-1.99553380110264,-0.301271498203278,0.0538836047053337,-0.455692946910858,Z
1525788582.26799,0.201612122711529,-0.101038437177927,-1.98304552820665,-0.334481686353683,0.0294587016105652,-0.510923683643341,Z
1525788582.27789,0.20207245248667,-0.106661383722219,-1.97057932222828,-0.431950837373734,0.0439771488308907,-0.499425292015076,Z
1525788582.28842,0.203309561158379,-0.111732462349832,-1.9597004407295,-0.479552924633026,0.0385853201150894,-0.442551255226135,Z
1525788582.29814,0.20470075932136,-0.116267204290989,-1.95051650341046,-0.472638487815857,0.0665812417864799,-0.400215029716492,Z
1525788582.30794,0.205346347662535,-0.119903743972437,-1.94276193888349,-0.426410734653473,0.0800751298666,-0.358284533023834,Z
1525788582.32329,0.204309607698134,-0.122905795009847,-1.93591912955466,-0.368459671735764,0.0801469311118126,-0.340059638023376,Z
1525788582.32809,0.202147098112012,-0.12561082046758,-1.92895618897117,-0.365405321121216,0.0605712831020355,-0.383732318878174,Z
1525788582.33801,0.200381223157258,-0.127492600437874,-1.92189257882816,-0.413903921842575,0.0467569231987,-0.420342803001404,Z
1525788582.34784,0.199488402640222,-0.128467734548225,-1.9150913825037,-0.469743490219116,0.0287456959486008,-0.41514664888382,Z
1525788582.35853,0.199161816271767,-0.128648539680359,-1.90895384424631,-0.534866333007812,0.0015888512134552,-0.39761871099472,Z
1525788582.36847,0.198980983932613,-0.128165417036164,-1.90387959814845,-0.595814228057861,-0.0174632519483566,-0.36048948764801,Z
1525788582.37803,0.19875729242222,-0.127267644361264,-1.90053948127621,-0.633522152900696,-0.0388964116573334,-0.339444279670715,Z
1525788582.39071,0.198227141354841,-0.125877910634099,-1.89896664291749,-0.651794254779816,-0.052807092666626,-0.326244413852692,Z
1525788582.39794,0.197372921016601,-0.123843172134275,-1.89933792282935,-0.658566117286682,-0.0525429546833038,-0.293267130851746,Z
1525788582.40797,0.196497923479698,-0.121509960029744,-1.90130374588772,-0.664636790752411,-0.0531569719314575,-0.257065892219543,Z
1525788582.42407,0.196003722929497,-0.119238564309229,-1.90492029032247,-0.664574980735779,-0.0452409982681274,-0.247730493545532,Z
1525788582.42809,0.196243070124712,-0.116808380094595,-1.90987743752612,-0.660011529922485,-0.0301476716995239,-0.212599337100983,Z
1525788582.43794,0.19726202449707,-0.114414359516947,-1.91635113942011,-0.644838094711304,-0.0206590443849564,-0.168855667114258,Z
1525788582.44792,0.198826266148958,-0.112087862766167,-1.92403620974886,-0.628423571586609,-0.0102755427360535,-0.129337668418884,Z
1525788582.45949,0.200606288745779,-0.109562376388287,-1.93307292467478,-0.594812512397766,-0.00706364214420319,-0.0953267216682434,Z
1525788582.46864,0.202496662490353,-0.107084238336031,-1.9430071356587,-0.576840400695801,0.000786319375038147,-0.0167966485023499,Z
1525788582.47807,0.20511552696104,-0.105332109287455,-1.95391027930787,-0.551504671573639,-0.00841197371482849,0.0278716087341309,Z
1525788582.49059,0.208377464123261,-0.104386872844709,-1.96539445873118,-0.543393135070801,-0.0215558037161827,0.0388228893280029,Z
1525788582.49799,0.211563115902727,-0.104313858964347,-1.97774395886671,-0.542190492153168,-0.035689115524292,-0.00579065084457397,Z
1525788582.50796,0.214517505016207,-0.104686133664978,-1.99098879959673,-0.549601197242737,-0.0500974431633949,-0.0628005266189575,Z
1525788582.52361,0.21757513991749,-0.104919481075906,-2.00559029276562,-0.566131234169006,-0.0336363911628723,-0.0877529382705688,Z
1525788582.52809,0.220932596846754,-0.104986034002966,-2.02159833171569,-0.584540724754333,-0.00928852707147598,-0.0889437794685364,Z
1525788582.53796,0.22429603753606,-0.105032261743554,-2.03957055604658,-0.587634205818176,0.0376778393983841,-0.0680500268936157,Z
1525788582.54796,0.22721644369633,-0.105324774634171,-2.05938262924709,-0.584003448486328,0.0790586993098259,-0.0430342555046082,Z
1525788582.55901,0.230054866998584,-0.106200497565627,-2.08093903394105,-0.544373154640198,0.109971918165684,-0.0346544981002808,Z
1525788582.56853,0.233398095897169,-0.107655462208331,-2.10366845719014,-0.47643631696701,0.146565422415733,-0.0410622358322144,Z
1525788582.57808,0.237221629472479,-0.109407767173987,-2.12730394375373,-0.404618382453918,0.174593329429626,-0.0428501963615417,Z
1525788582.59065,0.241284683889777,-0.111228104112107,-2.15125986653817,-0.351395815610886,0.201501101255417,-0.0575211644172668,Z
1525788582.59822,0.245035308396502,-0.112676274309408,-2.17564591968158,-0.300363183021545,0.22380468249321,-0.086239755153656,Z
1525788582.608,0.247894094556063,-0.113200352217789,-2.20058436874528,-0.225817710161209,0.226991817355156,-0.0787197947502136,Z
1525788582.62373,0.249610190827012,-0.112868552047397,-2.22580416731474,-0.184434562921524,0.25875461101532,-0.0509356260299683,Z
1525788582.62815,0.249876573930008,-0.111868171108075,-2.25154973631376,-0.138179451227188,0.264051645994186,-0.0258831977844238,Z
1525788582.63803,0.248287740769515,-0.11044221193329,-2.2778945571622,-0.0971831530332565,0.244350641965866,-0.00419193506240845,Z
1525788582.64799,0.244778609596909,-0.108625095607922,-2.30423287380853,-0.0784681439399719,0.22578638792038,-0.0200395584106445,Z
1525788582.65899,0.239411644070668,-0.105943474434053,-2.33110841288293,-0.0658644139766693,0.2059306204319,-0.0286743640899658,Z
1525788582.66835,0.233078312201752,-0.102342240607682,-2.35849424118522,-0.0615217387676239,0.201272591948509,0.0217326283454895,Z
1525788582.67804,0.227458175096305,-0.0988206633539985,-2.38626449520015,-0.0528014004230499,0.2019382417202,0.111991465091705,Z
1525788582.69295,0.223486767144069,-0.0968529651131156,-2.41394631229835,-0.00956328213214874,0.200615882873535,0.173593997955322,Z
1525788582.69806,0.220701861053368,-0.0971974733005582,-2.44141970548989,0.0551747828722,0.202851742506027,0.157768845558167,Z
1525788582.70803,0.218197606962095,-0.0993043412378445,-2.46857824544274,0.107441619038582,0.213038355112076,0.0592021942138672,Z
1525788582.72349,0.214955528826049,-0.101493063915983,-2.49565247704856,0.146131098270416,0.231627866625786,-0.013454258441925,Z
1525788582.72833,0.210549924702476,-0.102912139418633,-2.52288329521347,0.201287746429443,0.249991580843925,-0.0496577024459839,Z
1525788582.7381,0.204541045842748,-0.1030669438964,-2.55037067824097,0.274202167987823,0.281148642301559,-0.0764110088348389,Z
1525788582.74816,0.197005550843105,-0.101439845589815,-2.57759958691438,0.362569242715836,0.310080468654633,-0.0395055413246155,Z
1525788582.75897,0.188409226017595,-0.0984867836656359,-2.60418996264801,0.440121740102768,0.332443237304688,0.0228924155235291,Z
1525788582.76841,0.179904074045348,-0.095164912907463,-2.62940544321218,0.511983692646027,0.337458521127701,0.101815104484558,Z
1525788582.77805,0.172897352028461,-0.0927019546590191,-2.65300843786288,0.575146198272705,0.328191876411438,0.142237663269043,Z
1525788582.79065,0.167527502702861,-0.0916552346657931,-2.67469374241784,0.624985814094543,0.323206931352615,0.117771446704865,Z
1525788582.7981,0.163370429948634,-0.0913507948717333,-2.6945248984955,0.665273487567902,0.323250710964203,0.0798912048339844,Z
1525788582.80823,0.159731228605743,-0.0910684910341725,-2.71251340465466,0.685325741767883,0.310790717601776,0.0723665952682495,Z
1525788582.82354,0.156070529790646,-0.0909164355540591,-2.72879633101712,0.675190806388855,0.297926425933838,0.061082124710083,Z
1525788582.82818,0.152465385901905,-0.0908473512631919,-2.74363173393728,0.671199679374695,0.301321625709534,0.00878351926803589,Z
1525788582.83808,0.148644745103495,-0.0899981094661008,-2.75740955215763,0.689156055450439,0.304852962493896,-0.0274046659469604,Z
1525788582.84816,0.144382656073419,-0.0879866467102632,-2.77019105957287,0.699890971183777,0.329073250293732,-0.0251737236976624,Z
1525788582.85926,0.140708851016947,-0.0852223700520344,-2.7822649025207,0.716114223003387,0.339044570922852,-0.00300902128219604,Z
1525788582.86841,0.138408314748675,-0.0820775666599786,-2.7934377556484,0.683084785938263,0.32682803273201,0.0379906296730042,Z
1525788582.87808,0.136757575639643,-0.0792221474045417,-2.80355491681713,0.666967630386353,0.319511830806732,0.0140300989151001,Z
1525788582.89182,0.134313967526915,-0.0757655582160372,-2.81208508182379,0.62733793258667,0.273428022861481,-0.0185176730155945,Z
1525788582.89816,0.130700802193149,-0.0711886789449073,-2.81879427867298,0.584753274917603,0.232551857829094,0.0141670703887939,Z
1525788582.90812,0.127297271087232,-0.0662956977317853,-2.82373369755132,0.533496618270874,0.212042659521103,0.090681791305542,Z
1525788582.92808,0.125092778412269,-0.0622328250741877,-2.82696944128468,0.520738422870636,0.172731652855873,0.142700672149658,Z
1525788582.92914,0.12410371588993,-0.0591697184827886,-2.82800523422366,0.511975049972534,0.108726739883423,0.191347599029541,Z
0,0,0,0,0,0,0,0
1525788584.24102,0.0690337554705632,0.330992545168648,-2.02751129128209,-0.013339638710022,-0.00787335634231567,-0.0190110802650452,Z
1525788584.24853,0.0694059378322082,0.334818664763267,-2.0290567467871,0.0267554521560669,-0.0254517793655396,0.0257682800292969,Z
1525788584.25913,0.070342781292942,0.338127713111646,-2.03004742772503,0.0258580148220062,-0.0232895612716675,0.0648693442344666,Z
1525788584.26857,0.071885544094572,0.340316211525311,-2.03033520506048,0.0139910578727722,0.00306618213653564,0.0444015264511108,Z
1525788584.27869,0.0733131478277877,0.341287739749576,-2.03029692302452,0.00313591957092285,0.0063011646270752,0.0620769858360291,Z
1525788584.29366,0.0751681684051175,0.341259004459951,-2.03011712610807,0.00545082986354828,0.0136593580245972,0.0339264869689941,Z
1525788584.29862,0.0764427155096848,0.340578044384376,-2.03003432959962,0.00707396864891052,0.015901505947113,-0.00931817293167114,Z
1525788584.30855,0.0769974432539194,0.339936837250242,-2.02985433091402,0.0100914686918259,0.0074540376663208,-0.0524493455886841,Z
1525788584.32357,0.0769022009527129,0.339813354641611,-2.02971112908119,0.00297568738460541,0.000440657138824463,-0.0615108609199524,Z
1525788584.3287,0.0763329594108746,0.34026673831145,-2.02956436923092,-0.00892883539199829,-0.00291609764099121,-0.0445154905319214,Z
1525788584.34611,0.0756150556642097,0.340920956876456,-2.02954867702764,-0.00823754072189331,-0.00229948759078979,-0.0446820259094238,Z
1525788584.34839,0.0753869572563816,0.341415659137371,-2.02995738392628,-0.0326078683137894,-0.0266898572444916,0.000976026058197021,Z
1525788584.35948,0.0753453420086254,0.341450305400714,-2.03077600760542,-0.021017000079155,-0.0288850069046021,-0.00342708826065063,Z
1525788584.3685,0.0752969609969503,0.341140366601839,-2.03176323041182,-0.0173935145139694,-0.0294974744319916,-0.0147185325622559,Z
1525788584.37856,0.0753527402838516,0.340617679567042,-2.03283483036826,-0.0234710574150085,-0.0219639837741852,-0.0210637450218201,Z
1525788584.3909,0.0758359199372641,0.339933279778949,-2.03386607516554,-0.0274367332458496,-0.0108598470687866,-0.0158960223197937,Z
1525788584.39866,0.076457722978901,0.339177485007593,-2.03473815811601,-0.0250802934169769,-0.00524011254310608,-0.0183599591255188,Z
1525788584.40859,0.0768876605485514,0.338580700659991,-2.03537077506056,-0.0260185748338699,0.00225371122360229,-0.0165452361106873,Z
1525788584.42357,0.0770272826788969,0.338339066537075,-2.03597871409434,-0.0243555158376694,0.0094262957572937,-0.0060078501701355,Z
1525788584.42878,0.0767856216247616,0.338158354631087,-2.03627486501171,-0.0351496785879135,0.0103544294834137,0.0131276845932007,Z
1525788584.43878,0.0765914437725507,0.337651904133131,-2.03653215922354,-0.0542212128639221,0.0186504125595093,0.00995218753814697,Z
1525788584.44863,0.0764334589829352,0.336833939571175,-2.03665905836714,-0.068055048584938,0.00815868377685547,-0.0211843848228455,Z
1525788584.45907,0.0759761938548386,0.33611354209341,-2.03668902656009,-0.105637177824974,-0.0126934349536896,-0.0436956882476807,Z
1525788584.46863,0.0753470071451577,0.335621649551501,-2.03673129430773,-0.167984336614609,-0.0236711502075195,-0.0487534403800964,Z
1525788584.47861,0.0748232457668063,0.335199559230505,-2.03730463049645,-0.218893185257912,-0.0277928709983826,-0.0583128929138184,Z
1525788584.49082,0.0746251654242426,0.334919341587538,-2.03848150696575,-0.248483419418335,-0.0178035795688629,-0.0593361854553223,Z
1525788584.49872,0.0749481186048295,0.334789219069069,-2.04038731353911,-0.253795683383942,-0.0147068798542023,-0.0518700480461121,Z
1525788584.50882,0.0753896870167889,0.334711026560067,-2.04296158058547,-0.249406963586807,-0.00791427493095398,-0.045970618724823,Z
1525788584.52524,0.0754953392904539,0.334688081554025,-2.04618851308144,-0.229380682110786,-0.00187820196151733,-0.052959144115448,Z
1525788584.52898,0.0750513643153765,0.3348661239065,-2.049742235896,-0.205200210213661,0.00680434703826904,-0.0574720501899719,Z
1525788584.53865,0.0743449832764713,0.335109222194928,-2.05332878490718,-0.206649959087372,0.0173488855361938,-0.0471259951591492,Z
1525788584.54867,0.0735016221207525,0.335001186552555,-2.05649612226334,-0.227251127362251,0.0269819498062134,-0.0535930395126343,Z
1525788584.5594,0.0723683048877005,0.334478101267952,-2.05945610555503,-0.266372442245483,0.0353685319423676,-0.0780780911445618,Z
1525788584.56864,0.0708427147687367,0.333853054617614,-2.06244341308398,-0.309230625629425,0.0267824530601501,-0.106853783130646,Z
1525788584.57864,0.0692882818624043,0.333317875444818,-2.06603591023262,-0.355446219444275,0.0259410738945007,-0.120415866374969,Z
1525788584.59078,0.0684156052195476,0.332985495208497,-2.07066730536225,-0.367249965667725,0.0237806439399719,-0.141704559326172,Z
1525788584.5987,0.0674992289521941,0.333189534461929,-2.07640822747983,-0.348559141159058,0.0111713409423828,-0.15860378742218,Z
1525788584.60872,0.0662995950059791,0.334102185909409,-2.0829939010096,-0.325633943080902,0.00200864672660828,-0.160779356956482,Z
1525788584.62366,0.0650811304590431,0.335670235072233,-2.09007937405802,-0.340214133262634,-0.00513163208961487,-0.135354399681091,Z
1525788584.62876,0.0643542300935671,0.337613394448765,-2.09742146602701,-0.367121636867523,-0.00306862592697144,-0.100367069244385,Z
1525788584.63868,0.0649029910552687,0.339287209071656,-2.10514889026037,-0.387988030910492,0.0048883855342865,-0.0584593415260315,Z
1525788584.64867,0.0676028637027744,0.340425691763553,-2.11342037298105,-0.405914157629013,0.0156053006649017,-0.0413063764572144,Z
1525788584.65948,0.0713977193608967,0.341525116808951,-2.12257573008538,-0.426607251167297,0.0242097973823547,-0.00400340557098389,Z
1525788584.66868,0.0747165778436048,0.342436725232353,-2.1332362087805,-0.420731097459793,0.034376472234726,-0.00052344799041748,Z
1525788584.67867,0.0775795811718397,0.343251439609309,-2.14601717117109,-0.363630175590515,0.0594662725925446,-0.0141852498054504,Z
1525788584.69106,0.0802153398238861,0.344261962582493,-2.15998777243056,-0.301486700773239,0.0761189758777618,-0.0389817953109741,Z
1525788584.69873,0.0822762603345441,0.345785824548219,-2.17416377082772,-0.290591061115265,0.0882494449615479,-0.046305775642395,Z
1525788584.7087,0.0843763334294033,0.347795943404932,-2.1884503107672,-0.303824424743652,0.0934663116931915,-0.0247052907943726,Z
1525788584.72383,0.0874447195103834,0.3499512323159,-2.20305235327324,-0.31812396645546,0.090196967124939,0.0258421897888184,Z
1525788584.72881,0.0917747891262261,0.351820531095958,-2.21808782738578,-0.320666790008545,0.0908384919166565,0.0770844221115112,Z
1525788584.7387,0.0968032291163724,0.353126470957334,-2.23410754649408,-0.306203424930573,0.11249566078186,0.104221642017365,Z
1525788584.7487,0.101664822783968,0.353938465336602,-2.25105945966953,-0.241851150989532,0.12131404876709,0.104008913040161,Z
1525788584.7598,0.10613319620826,0.354529239007886,-2.26844952814545,-0.192470401525497,0.127208739519119,0.100684881210327,Z
1525788584.76881,0.110612462542722,0.354867094435113,-2.2858664730958,-0.178124576807022,0.149757623672485,0.102753639221191,Z
1525788584.77873,0.115769895342,0.35451947642065,-2.30317700533246,-0.17917475104332,0.156572759151459,0.11235237121582,Z
1525788584.79086,0.122076700425023,0.353030078324772,-2.32040720190675,-0.169958412647247,0.152505308389664,0.0770981311798096,Z
1525788584.79876,0.12901927510474,0.350909750912847,-2.33787683684928,-0.117921859025955,0.129473090171814,-0.00564956665039062,Z
1525788584.80879,0.135371255471679,0.349474276901051,-2.35559342811544,-0.0828855335712433,0.0942196846008301,-0.0381133556365967,Z
1525788584.82364,0.14086842016126,0.349118856903591,-2.3735830434632,-0.0894984006881714,0.0831283032894135,-0.0037766695022583,Z
1525788584.82885,0.146113952250691,0.349327369387729,-2.39204811709848,-0.0984100103378296,0.0778463184833527,0.0549418926239014,Z
1525788584.83892,0.151346072610528,0.349417137731368,-2.41124491122368,-0.104182749986649,0.0899545848369598,0.100432455539703,Z
1525788584.84868,0.156751604182396,0.3490132988269,-2.43142158735273,-0.0719763487577438,0.108526527881622,0.124020576477051,Z
1525788584.85946,0.162211537710695,0.34812994921219,-2.45256681717975,-0.012820690870285,0.127548009157181,0.137282192707062,Z
1525788584.8687,0.167253766819462,0.346839665928975,-2.47444300477184,0.0723353624343872,0.15134397149086,0.118215680122375,Z
1525788584.87876,0.171306066815744,0.345487275083633,-2.49662458978889,0.161594480276108,0.183870047330856,0.0973653793334961,Z
1525788584.89097,0.174676759715663,0.344247360131533,-2.51882487835211,0.25948691368103,0.204065442085266,0.0814394354820251,Z
1525788584.89879,0.177554247052351,0.343300495468051,-2.54056945332816,0.339908927679062,0.237536787986755,0.073344349861145,Z
1525788584.90878,0.179589845264234,0.342859997205909,-2.56158205979335,0.403563141822815,0.273544669151306,0.0817098617553711,Z
1525788584.92522,0.181311122474345,0.342682626155393,-2.58191699054697,0.501200795173645,0.312821567058563,0.141154706478119,Z
1525788584.9291,0.183617903724057,0.341929191082989,-2.60057476268999,0.598841071128845,0.343544960021973,0.212939023971558,Z
1525788584.93885,0.186295427261766,0.340148926006613,-2.61663068419216,0.665907621383667,0.345468312501907,0.242906451225281,Z
1525788584.94889,0.188389028513676,0.337689782109012,-2.62968351003714,0.683041453361511,0.3319491147995,0.247919619083405,Z
1525788584.95976,0.189065914236457,0.334957648357998,-2.64065232077423,0.681146025657654,0.309075862169266,0.240766108036041,Z
1525788584.96875,0.188243939326144,0.332310150111329,-2.65013437393938,0.680510401725769,0.292307376861572,0.225970506668091,Z
1525788584.97874,0.186371333475965,0.330320270551144,-2.658610202173,0.688294172286987,0.264882504940033,0.240165591239929,Z
1525788584.99173,0.183177506674082,0.329098816981476,-2.66601034940274,0.680922746658325,0.24894106388092,0.259557366371155,Z
1525788584.99882,0.178397751558466,0.328490254730655,-2.67242676314665,0.671955406665802,0.237683951854706,0.307469606399536,Z
1525788585.0088,0.173440900727202,0.32765615727493,-2.67782393128006,0.69502204656601,0.227342337369919,0.380195498466492,Z
1525788585.01966,0.16928952370619,0.325464631064084,-2.68176774403879,0.723663628101349,0.233552157878876,0.417111694812775,Z
1525788585.0291,0.165757259363976,0.321452533270641,-2.68367584537228,0.738746643066406,0.250133872032166,0.400220215320587,Z
1525788585.03882,0.162202760967222,0.315869259688259,-2.68352084777635,0.733154833316803,0.258595108985901,0.341019332408905,Z
1525788585.04888,0.158464562956498,0.309170210198183,-2.68109782155743,0.710229694843292,0.257774770259857,0.257209956645966,Z
1525788585.05913,0.154668403883648,0.30214946166557,-2.67672931624624,0.672079086303711,0.261226534843445,0.167530357837677,Z
1525788585.06881,0.150462494011068,0.295898635546208,-2.67065113617423,0.625112652778625,0.254749566316605,0.127038240432739,Z
1525788585.07884,0.145654703759458,0.290964234778148,-2.6635742703343,0.567396521568298,0.226466506719589,0.147637724876404,Z
1525788585.08918,0.140323375736423,0.287207750653134,-2.65627381890441,0.548101425170898,0.206493228673935,0.185177206993103,Z
1525788585.09893,0.133887621420023,0.284274364302733,-2.64910369267986,0.567746579647064,0.202442824840546,0.222484767436981,Z
1525788585.10898,0.126665779951977,0.282013574298839,-2.64169699297858,0.572876811027527,0.217178791761398,0.270688474178314,Z
1525788585.11978,0.119646997882948,0.279648107043929,-2.6338273317627,0.58309006690979,0.237824708223343,0.344295859336853,Z
1525788585.12899,0.112527072672656,0.275763030535962,-2.62423113436429,0.584015190601349,0.263278543949127,0.404618501663208,Z
1525788585.13886,0.106468436156407,0.268972168130745,-2.6122714457611,0.560456335544586,0.272149384021759,0.413480758666992,Z
1525788585.14885,0.102725571701489,0.25869924832711,-2.597625902374,0.531055331230164,0.257654368877411,0.349093794822693,Z
1525788585.15916,0.100430098139983,0.245938303215095,-2.58091360459419,0.481628239154816,0.24883759021759,0.220011711120605,Z
1525788585.16887,0.0983997407620387,0.232392081625165,-2.5630022557314,0.424663543701172,0.239079773426056,0.105160236358643,Z
1525788585.17894,0.0958421895073131,0.219588474954574,-2.5449975717584,0.3662428855896,0.243630602955818,0.0613822937011719,Z
1525788585.1902,0.0925570926226194,0.208098467040864,-2.5274958159242,0.346855401992798,0.249797388911247,0.0728245973587036,Z
1525788585.19902,0.0878059208528447,0.197423479382463,-2.51028300987998,0.353600740432739,0.247809767723083,0.100988864898682,Z
1525788585.20896,0.0814175125190284,0.18639437036221,-2.49244705342997,0.366385400295258,0.233641520142555,0.0783920884132385,Z
1525788585.22236,0.0742414297102701,0.174041844179932,-2.47349793659234,0.361044585704803,0.213874980807304,-0.00294280052185059,Z
1525788585.22901,0.0686536816387068,0.160651657936744,-2.45297377356034,0.33876246213913,0.20526485145092,-0.0830885171890259,Z
1525788585.23889,0.0662510990328933,0.146885153207977,-2.43126462643268,0.283860206604004,0.211466789245605,-0.116209924221039,Z
1525788585.24888,0.0668257039675226,0.133233105193689,-2.40888776699775,0.194695338606834,0.225429624319077,-0.0932737588882446,Z
1525788585.25905,0.0688626139433054,0.120037990436943,-2.38731035053706,0.14366203546524,0.243468195199966,-0.037274181842804,Z
1525788585.26897,0.0702332158041548,0.106920172965713,-2.36644191944067,0.163959383964539,0.248211324214935,-0.00462174415588379,Z
1525788585.27892,0.0696140558075038,0.0930937209298699,-2.34539689252036,0.179797306656837,0.236452966928482,-0.0324375033378601,Z
1525788585.28997,0.0670347031912297,0.0782447227986274,-2.32338688804469,0.174309298396111,0.213159412145615,-0.13818746805191,Z
1525788585.29898,0.0632288174643097,0.0628069584382752,-2.30038103474667,0.156252473592758,0.193396165966988,-0.285063445568085,Z
1525788585.30889,0.0601714796627854,0.0482096470520725,-2.27592134867089,0.0741052180528641,0.173847109079361,-0.375177145004272,Z
1525788585.32413,0.059077654890964,0.0357732288963183,-2.25069650570114,-0.0702054724097252,0.150481179356575,-0.368990898132324,Z
1525788585.3299,0.0595318260198237,0.0258550557545185,-2.22619547959877,-0.206373140215874,0.126422852277756,-0.256530165672302,Z
1525788585.33892,0.0602764354642603,0.0175464042089611,-2.20415795549844,-0.273777425289154,0.133970066905022,-0.107499539852142,Z
1525788585.34889,0.0596423323856476,0.00924773393400679,-2.18446838264227,-0.279880315065384,0.14738541841507,0.00312310457229614,Z
1525788585.35972,0.0568874430615885,-0.000789352226671076,-2.16599258700558,-0.260531067848206,0.140522301197052,0.00385993719100952,Z
1525788585.36892,0.0531578090523351,-0.0134794547594418,-2.1474707212338,-0.256954848766327,0.0933477357029915,-0.119468986988068,Z
1525788585.37895,0.0511111946681834,-0.0281434192404439,-2.12893004581765,-0.300412595272064,0.065549261868,-0.265586853027344,Z
1525788585.39084,0.052406760163129,-0.0430069027781766,-2.1103616182402,-0.350689440965652,0.0499171204864979,-0.388343691825867,Z
1525788585.39909,0.0561852014404367,-0.0563520643513486,-2.09220613640973,-0.420248031616211,0.0293558537960052,-0.414081990718842,Z
1525788585.40893,0.0612943975043294,-0.0674896601488526,-2.075262725644,-0.501500487327576,0.0366112440824509,-0.331023991107941,Z
1525788585.42658,0.0665508237219599,-0.0771204262474836,-2.06092531411433,-0.50282746553421,0.0612464025616646,-0.244879722595215,Z
1525788585.42928,0.0696211774525779,-0.0860047177927291,-2.04858782310116,-0.439394503831863,0.0732504427433014,-0.229803621768951,Z
1525788585.43909,0.0691444166428863,-0.0942821765130062,-2.03708787495147,-0.404735237360001,0.0661510154604912,-0.277450084686279,Z
1525788585.44904,0.0663922114926022,-0.101667417778871,-2.02580675245459,-0.416495263576508,0.0565886944532394,-0.3197181224823,Z
1525788585.45972,0.063816749097738,-0.108356314739848,-2.01461362308987,-0.413298726081848,0.0641883611679077,-0.343749642372131,Z
1525788585.46985,0.0630025736968743,-0.114445540655808,-2.00394371743504,-0.456637769937515,0.0536050274968147,-0.328596413135529,Z
1525788585.47888,0.0638093400577456,-0.120120729599632,-1.99408108503074,-0.480237722396851,0.0474042594432831,-0.303644597530365,Z
1525788585.49458,0.0650732484910959,-0.124870394669036,-1.98504067123605,-0.520804584026337,0.0604971945285797,-0.268827855587006,Z
1525788585.49902,0.0654117644424212,-0.12876572062556,-1.976826235701,-0.565739512443542,0.0627977102994919,-0.223397195339203,Z
1525788585.50896,0.0646430034432321,-0.132691478759998,-1.96982832472609,-0.593189716339111,0.0488346517086029,-0.195537984371185,Z
1525788585.52387,0.0632748797037769,-0.137346365771851,-1.96352913558443,-0.623077273368835,0.0285360962152481,-0.245347261428833,Z
1525788585.52907,0.0619428381861254,-0.142322510340434,-1.95841516079752,-0.629529893398285,0.00635083019733429,-0.346497118473053,Z
1525788585.53901,0.0607671405482429,-0.146440113633822,-1.95456540204534,-0.617742717266083,0.00351203978061676,-0.420244038105011,Z
1525788585.54899,0.0598130325698427,-0.148972698890496,-1.95236946785751,-0.593218684196472,0.00595088303089142,-0.412090599536896,Z
1525788585.55965,0.0595281119618091,-0.150162801845996,-1.95115755122364,-0.568192362785339,0.0194682776927948,-0.36700850725174,Z
1525788585.56988,0.0596494718698875,-0.150465663103756,-1.950655007215,-0.577861428260803,0.0368537753820419,-0.348826706409454,Z
1525788585.57898,0.0595546714320369,-0.149828324179921,-1.95046081293365,-0.627074718475342,0.0323569923639297,-0.349870324134827,Z
1525788585.5907,0.0591237553568306,-0.148184708434394,-1.95122753001754,-0.672714829444885,0.0108500719070435,-0.340797185897827,Z
1525788585.59908,0.0586729613708511,-0.145633278410679,-1.95293286580283,-0.716511607170105,0.000709220767021179,-0.338216066360474,Z
1525788585.609,0.0583440770391597,-0.142240790421311,-1.9562218974606,-0.723066329956055,-0.00328812003135681,-0.303394258022308,Z
1525788585.62403,0.0586615453000836,-0.138416506231067,-1.96075328797285,-0.709022402763367,-0.0159046351909637,-0.233954668045044,Z
1525788585.6291,0.059955528944116,-0.134832050932774,-1.96662304841536,-0.704029083251953,-0.017862007021904,-0.179710328578949,Z
1525788585.63901,0.0619384228399546,-0.131817301298753,-1.97355653440011,-0.696905672550201,-0.020199328660965,-0.134096145629883,Z
1525788585.64904,0.0644660076029958,-0.129503683508042,-1.98180187585933,-0.67000675201416,-0.0221321135759354,-0.107998430728912,Z
1525788585.66006,0.067121838647329,-0.127874921448843,-1.9909864195801,-0.643550157546997,-0.0118803381919861,-0.0930704474449158,Z
1525788585.66995,0.0700099374989507,-0.126764770854095,-2.00144255737837,-0.610162973403931,-0.00536230206489563,-0.0846726894378662,Z
1525788585.67918,0.0733613177543714,-0.125958690881783,-2.01274239412069,-0.590201437473297,0.012344092130661,-0.0739910006523132,Z
1525788585.69073,0.0771163648265167,-0.125334050539899,-2.0252839085982,-0.575474321842194,0.0303588211536407,-0.0661516189575195,Z
1525788585.69908,0.0810287047896173,-0.124730191988996,-2.03892748805939,-0.557255268096924,0.0485818684101105,-0.0577924847602844,Z
1525788585.70937,0.0847686904641829,-0.124030300091213,-2.05402319026361,-0.514131546020508,0.0539455413818359,-0.0537407398223877,Z
1525788585.72433,0.0882195473748326,-0.1229233029711,-2.07014210950137,-0.463615298271179,0.0737056061625481,-0.0352087616920471,Z
1525788585.72913,0.0914982636005468,-0.121411719824181,-2.08724824012191,-0.420577794313431,0.09119713306427,0.0225440263748169,Z
1525788585.73989,0.0951478177619526,-0.120132393270667,-2.1047208005831,-0.386494874954224,0.107741199433804,0.0824947357177734,Z
1525788585.74907,0.0993945185252164,-0.119695102204897,-2.12269257709435,-0.370127379894257,0.121297903358936,0.111708879470825,Z
1525788585.76021,0.103974040824221,-0.12018182589101,-2.14093209186773,-0.350001692771912,0.133036971092224,0.11279159784317,Z
1525788585.76984,0.108420772518595,-0.121278340282204,-2.15980138010214,-0.329032301902771,0.130636170506477,0.0990239977836609,Z
1525788585.77903,0.112293849307971,-0.122577597570146,-2.17907220878071,-0.325603187084198,0.12991113960743,0.0714965462684631,Z
1525788585.7907,0.115341389678536,-0.123693420863033,-2.1991037046368,-0.298898935317993,0.119343310594559,0.0445734262466431,Z
1525788585.79908,0.117602231412954,-0.124228049164345,-2.21957253354751,-0.276049315929413,0.11200737208128,0.049648642539978,Z
1525788585.80907,0.119365964104202,-0.124495923444987,-2.24069287968851,-0.261624187231064,0.130631938576698,0.0637215375900269,Z
1525788585.82366,0.121023268443703,-0.124826613938307,-2.26216218202891,-0.23683887720108,0.143090680241585,0.0778115391731262,Z
1525788585.8292,0.122627775010021,-0.125232454828582,-2.28422904941876,-0.209161803126335,0.156619295477867,0.0804669857025146,Z
1525788585.83908,0.124031278063241,-0.125608046939975,-2.30659512826076,-0.195706382393837,0.162380680441856,0.0846283435821533,Z
1525788585.84906,0.12517503839396,-0.125971383452004,-2.32969381277673,-0.163333609700203,0.167849063873291,0.0818633437156677,Z
1525788585.85961,0.125702008697012,-0.126260932305078,-2.35350783392081,-0.100249096751213,0.17984513938427,0.0570273399353027,Z
1525788585.86986,0.124938169282879,-0.126161662745141,-2.37791979044715,-0.0268364772200584,0.207363665103912,0.0310114026069641,Z
1525788585.8791,0.122399282076391,-0.125498275817911,-2.40221120222869,0.0143338590860367,0.223982498049736,0.00787568092346191,Z
1525788585.89317,0.118515787797245,-0.124218769186577,-2.42627739934255,0.01594278216362,0.232835665345192,-0.025499701499939,Z
1525788585.89914,0.113900952629133,-0.122116462462779,-2.45016083260788,0.0148160606622696,0.223111748695374,-0.0391317009925842,Z
1525788585.90911,0.109001772016442,-0.119315638707524,-2.47420593497018,0.0269818902015686,0.210847020149231,-0.0238665342330933,Z
1525788585.92375,0.103829439600915,-0.116222007236437,-2.49820936715385,0.0494609922170639,0.213263094425201,-0.0111644864082336,Z
1525788585.92923,0.098638211427637,-0.113096800154771,-2.52234656684304,0.097997359931469,0.211362898349762,0.0091215968132019,Z
1525788585.93914,0.0934726275656278,-0.110149845840891,-2.54615974949272,0.140886917710304,0.206738412380219,0.0131450295448303,Z
1525788585.94911,0.0879389681006543,-0.107323926662917,-2.56949552649766,0.161581009626389,0.20559561252594,0.00694495439529419,Z
1525788585.95997,0.0818301083199251,-0.104624934905623,-2.59218704365811,0.164283096790314,0.184552043676376,0.001503586769104,Z
1525788585.96974,0.0754085842519556,-0.102083159477469,-2.61456231417882,0.163778811693192,0.159156680107117,-0.0130379199981689,Z
1525788585.97911,0.0685618740694945,-0.0996831879362762,-2.63683438752851,0.164391130208969,0.153045296669006,-0.0423667430877686,Z
1525788585.99088,0.0616076046514607,-0.0971143592651578,-2.65921630774723,0.187531277537346,0.168617442250252,-0.0677878260612488,Z
1525788585.99912,0.0548686427920728,-0.0941303911760099,-2.68135380051249,0.219205379486084,0.191180065274239,-0.0562945008277893,Z
1525788586.00917,0.0482788766660115,-0.0909399551249308,-2.70325874198128,0.243641570210457,0.208944261074066,-0.0271126627922058,Z
1525788586.02006,0.0418784511444394,-0.0878754132190159,-2.72466695303674,0.276975154876709,0.229956150054932,0.0331098437309265,Z
1525788586.02925,0.0363851777096387,-0.085730889365589,-2.74598850146455,0.333263278007507,0.261206358671188,0.0815901756286621,Z
1525788586.03923,0.0318874060179923,-0.085083060431944,-2.76681527808156,0.44500944018364,0.275004923343658,0.0776479244232178,Z
1525788586.04928,0.0273827430614899,-0.0853260095877097,-2.78669058783386,0.556506276130676,0.306516379117966,0.00737148523330688,Z
1525788586.05933,0.0212110627155017,-0.084895616837188,-2.80485673529603,0.646683096885681,0.329680800437927,-0.0619921088218689,Z
1525788586.06934,0.0119600431474523,-0.0825737734675119,-2.82094553788868,0.686002731323242,0.341241359710693,-0.0662531852722168,Z
1525788586.07929,-0.000157649169171847,-0.0788012077603831,-2.83510595167324,0.69398957490921,0.344940602779388,-0.0366877913475037,Z
1525788586.08941,-0.0125249090891824,-0.0748862252803618,-2.84789663565829,0.703987300395966,0.359509915113449,-0.00999146699905396,Z
1525788586.0992,-0.0232017584762189,-0.0718110535898731,-2.85925383035311,0.740425050258636,0.372388243675232,-0.00344085693359375,Z
1525788586.10914,-0.0316589286158218,-0.0700105178710977,-2.8682470267242,0.770040452480316,0.350792527198792,-0.032246470451355,Z
1525788586.12284,-0.0378352536753004,-0.0690351150486744,-2.87439696447474,0.757401645183563,0.331547677516937,-0.0657942891120911,Z
1525788586.12926,-0.0416795094797888,-0.0682874007238167,-2.87792684873568,0.719899773597717,0.317187428474426,-0.0609669089317322,Z
1525788586.1393,-0.043858141190538,-0.0678594734306988,-2.87957840974129,0.672023832798004,0.311617642641068,-0.0451005697250366,Z
1525788586.14926,-0.044940073911249,-0.0681107753543804,-2.87976993870533,0.616506576538086,0.302928805351257,-0.0671687126159668,Z
1525788586.15963,-0.0450978550092105,-0.0685346654176459,-2.87910521108946,0.568200588226318,0.295273244380951,-0.0929462909698486,Z
1525788586.16927,-0.0446199151673781,-0.067592810316648,-2.87711055430076,0.579796850681305,0.250512838363647,-0.0991474986076355,Z
0,0,0,0,0,0,0,0
1525788589.21253,0.0988989338724309,0.150336303881404,-2.09979284551627,0.0460068732500076,0.0227259695529938,0.175661742687225,Z
1525788589.22154,0.0990942270437272,0.149428107489176,-2.09790660254782,0.0873052179813385,0.0425799190998077,0.0251733660697937,Z
1525788589.23018,0.0983704242107191,0.148463525198944,-2.09530204268361,0.121816888451576,0.0408783257007599,-0.0154308676719666,Z
1525788589.24036,0.0971978924161707,0.148013317273571,-2.09191324347805,0.0825897753238678,0.0294009447097778,-0.0608294606208801,Z
1525788589.25026,0.0954039642826929,0.14834976465669,-2.08806646209302,0.040644183754921,-0.00613969564437866,-0.0600674748420715,Z
1525788589.26058,0.093214487031459,0.14927000303785,-2.0840568528433,-0.0291172564029694,-0.0357166826725006,-0.016511857509613,Z
1525788589.27049,0.091225715732852,0.150044073615752,-2.0803075095695,-0.0946380645036697,-0.0444422364234924,0.0233187675476074,Z
1525788589.28035,0.0900763390725376,0.149956307956565,-2.07744890608301,-0.117585822939873,-0.0424843430519104,2.77161598205566e-05,Z
1525788589.29059,0.0896486315354742,0.1493297207415,-2.07585512072073,-0.0977180227637291,-0.0343606472015381,-0.0449004769325256,Z
1525788589.30019,0.0892491173890846,0.148820483095381,-2.07535243308839,-0.0560867637395859,-0.0165231674909592,-0.0775505304336548,Z
1525788589.31035,0.0886849458571705,0.148873196561099,-2.07548964210252,0.0118829905986786,-0.00672066211700439,-0.078256368637085,Z
1525788589.32107,0.0879764547469235,0.149518771952623,-2.07549133796451,0.0486611127853394,-0.00657054781913757,-0.0395480990409851,Z
1525788589.33057,0.0874423673640139,0.150301417790687,-2.07479680685974,0.0303528234362602,-0.00276017189025879,0.013924777507782,Z
1525788589.34043,0.0873214361683077,0.150495423253207,-2.07366327376146,0.0045192688703537,-0.00121033191680908,0.0346277356147766,Z
1525788589.35033,0.0874405822785861,0.14994555509836,-2.07231899470133,-0.021133229136467,-0.00971910357475281,0.0101174712181091,Z
1525788589.36093,0.0875444359240728,0.149077614546179,-2.07117939958982,-0.0219945013523102,-0.00162044167518616,-0.0391248464584351,Z
1525788589.37065,0.0875748326632804,0.148472127280113,-2.07037163381811,0.00407548993825912,0.00562377274036407,-0.0715240240097046,Z
1525788589.38327,0.0877306501984036,0.148477600736641,-2.06971834636824,0.012054979801178,0.0193773508071899,-0.0592855215072632,Z
1525788589.39159,0.0880418546210471,0.148873521516625,-2.06909511615278,0.0241131633520126,0.00991173088550568,-0.0361318588256836,Z
1525788589.40039,0.0881408461885399,0.149613641015152,-2.06830811452921,0.0209125354886055,0.000816971063613892,-0.00623601675033569,Z
1525788589.41041,0.0881083446501289,0.150410811042608,-2.06731409918953,-0.0124159306287766,-0.00518497824668884,0.0381885170936584,Z
1525788589.42403,0.0879605530323163,0.150747182727108,-2.0663859034306,-0.0424936041235924,-0.0143891572952271,0.033985435962677,Z
1525788589.43055,0.0879137807333497,0.150722232984344,-2.06571531463663,-0.0547159314155579,-0.0149784088134766,0.0215573310852051,Z
1525788589.44043,0.0885295814198362,0.150316734877184,-2.06545006625437,-0.0489038154482841,-0.00283658504486084,-0.000835657119750977,Z
1525788589.45038,0.0894356876470745,0.149800512503252,-2.06547502249895,-0.0269453823566437,0.0030616819858551,-0.0280143022537231,Z
1525788589.46458,0.0902896170461492,0.14950238507801,-2.06567163351798,-0.0277903527021408,0.00276687741279602,-0.0280457735061646,Z
1525788589.47081,0.0913919460360812,0.1491771922171,-2.06596680040744,0.0232284665107727,0.0365792214870453,-0.0344136357307434,Z
1525788589.4805,0.0923043105738062,0.148988340220844,-2.0660869463654,0.054203063249588,0.0148470550775528,-0.0434711575508118,Z
1525788589.49357,0.0928716463622076,0.1491300628043,-2.06577996975426,0.0436518639326096,-0.000530987977981567,-0.0277816653251648,Z
1525788589.50049,0.0934329265123752,0.149505516492733,-2.06507963565581,0.00863482058048248,-0.00661417841911316,-0.00849497318267822,Z
1525788589.51053,0.0941490921787693,0.149907593208743,-2.06421985926987,-0.0227805525064468,-0.00588089227676392,0.0051882266998291,Z
1525788589.52408,0.0948097056636142,0.1503256812409,-2.06346603491067,-0.0460079312324524,-0.00444516539573669,0.0121902227401733,Z
1525788589.53052,0.0951944754713444,0.150754572212804,-2.06287480290907,-0.0731444507837296,0.00106003880500793,0.00545251369476318,Z
1525788589.54042,0.0954405874307762,0.151243209026752,-2.06270477988715,-0.0831758081912994,0.000337675213813782,0.00688207149505615,Z
1525788589.55045,0.0956344992924733,0.151728510550657,-2.06278587797768,-0.0735634937882423,-0.0138462781906128,0.0048835277557373,Z
1525788589.56057,0.0955652020808333,0.15225609794298,-2.06290981163724,-0.102113172411919,-0.0157356560230255,0.00940346717834473,Z
1525788589.57067,0.0952820027163342,0.152576288366708,-2.06318152721421,-0.118736639618874,-0.0273515582084656,0.0140203833580017,Z
1525788589.58038,0.0950060412001231,0.152660318331942,-2.06342927624271,-0.137293249368668,-0.0394602715969086,0.0159562230110168,Z
1525788589.59134,0.0948643232456537,0.152402419644742,-2.06364786581406,-0.178279966115952,-0.0385555028915405,0.00497639179229736,Z
1525788589.60048,0.0946275632519421,0.151799389836553,-2.0642149739301,-0.208252757787704,-0.0249914228916168,-0.0338814854621887,Z
1525788589.61048,0.0941740025792804,0.151195297068895,-2.06531343138097,-0.214574635028839,-0.015838235616684,-0.0732229351997375,Z
1525788589.62408,0.0936683718250592,0.150815071439165,-2.0670417617163,-0.203569009900093,0.00162339210510254,-0.107924401760101,Z
1525788589.63054,0.0931267393388988,0.151010767393317,-2.06906489166066,-0.195174843072891,0.00814926624298096,-0.111459076404572,Z
1525788589.64048,0.0923635299085861,0.151613414991452,-2.07125703177109,-0.219119176268578,0.00789052248001099,-0.0916889905929565,Z
1525788589.65045,0.0917383197960595,0.15213847638851,-2.07369903445066,-0.215963527560234,-0.00675767660140991,-0.0974180698394775,Z
1525788589.6606,0.0912251438303017,0.152753433161223,-2.07614322543563,-0.252772867679596,-0.0309301316738129,-0.117026507854462,Z
1525788589.67068,0.0909195529605333,0.153805615332705,-2.07874694827317,-0.320084452629089,-0.0305158942937851,-0.10161030292511,Z
1525788589.68039,0.0910381159887673,0.154889627298399,-2.08227014948238,-0.366923660039902,-0.0272017270326614,-0.0960953831672668,Z
1525788589.69113,0.0914508852228606,0.156055068871949,-2.0870237150134,-0.369983613491058,-0.00542046129703522,-0.11407345533371,Z
1525788589.70048,0.0920391078445567,0.157746444553943,-2.09295098261069,-0.350548923015594,0.0321540683507919,-0.11303186416626,Z
1525788589.71058,0.0924446103110127,0.160172988604487,-2.09973004924634,-0.306142956018448,0.060352623462677,-0.0857107043266296,Z
1525788589.72685,0.0929511543725882,0.163071599429581,-2.1067896704762,-0.264193415641785,0.0576134920120239,-0.0456178188323975,Z
1525788589.73072,0.0940387073726961,0.166074340300358,-2.1137309107726,-0.25763201713562,0.0463849902153015,-0.0137523412704468,Z
1525788589.74051,0.0956133755067657,0.168718643731769,-2.12062101706387,-0.276775121688843,0.0271570086479187,0.00742107629776001,Z
1525788589.75047,0.0979846421653091,0.170638908508125,-2.12773625712906,-0.292299449443817,0.0318878144025803,-0.00803536176681519,Z
1525788589.76059,0.100777610795488,0.172089844652819,-2.13538607242302,-0.293350160121918,0.0185012221336365,-0.0720922350883484,Z
1525788589.77076,0.103213946419816,0.173738847527556,-2.14369813135178,-0.307229191064835,0.0046837329864502,-0.119799017906189,Z
1525788589.78054,0.105293274138426,0.176127384364148,-2.15283578934667,-0.309191882610321,-0.00956574082374573,-0.121783554553986,Z
1525788589.79119,0.107712845249996,0.179150516553099,-2.16277937805132,-0.343195617198944,0.00712746381759644,-0.076913595199585,Z
1525788589.80055,0.111047207763503,0.182147976857367,-2.17381723860639,-0.347434908151627,0.0354667752981186,-0.0406823754310608,Z
1525788589.81059,0.115159261185648,0.184968030198843,-2.18568861120938,-0.318679094314575,0.0678872764110565,-0.0243924260139465,Z
1525788589.82416,0.120288958395879,0.187626619312807,-2.19834147160884,-0.275409519672394,0.104588001966476,0.000329077243804932,Z
1525788589.83049,0.126558084464192,0.189868887468134,-2.21157448330226,-0.219060212373734,0.153467088937759,0.0061115026473999,Z
1525788589.8405,0.133164268598507,0.191731448938889,-2.22499336874856,-0.157285138964653,0.182120800018311,0.0038379430770874,Z
1525788589.8505,0.139601056690023,0.193429072470894,-2.23830315821638,-0.0555746704339981,0.13572184741497,-0.0298441648483276,Z
1525788589.86062,0.145347032401258,0.195847398253403,-2.25072836747102,-0.0525284260511398,0.0700860917568207,-0.0141246318817139,Z
1525788589.87068,0.150581696023996,0.199079175064811,-2.26239876461712,-0.149751156568527,0.0316901206970215,0.0474188327789307,Z
1525788589.8805,0.155454407019742,0.202247635299285,-2.27454165669134,-0.230469614267349,-0.00226861238479614,0.0909887552261353,Z
1525788589.89108,0.160003443842,0.204967146550408,-2.28791608389498,-0.271709263324738,0.0142039358615875,0.108956694602966,Z
1525788589.90056,0.164830284912524,0.20669499269937,-2.30287684084519,-0.251900851726532,0.0432085394859314,0.142023861408234,Z
1525788589.91056,0.171370382813964,0.206633928041909,-2.31888249271739,-0.172688141465187,0.0749786198139191,0.12065577507019,Z
1525788589.92413,0.179374422670697,0.205043864752526,-2.33524617265703,-0.124902471899986,0.128231689333916,0.0253857374191284,Z
1525788589.93067,0.187878707346337,0.203223359210437,-2.35178305157838,-0.0666292011737823,0.172728896141052,-0.0675231218338013,Z
1525788589.94082,0.196368174313929,0.202368326997082,-2.36840398149307,-0.0352432727813721,0.22168080508709,-0.104387998580933,Z
1525788589.95053,0.204452906011224,0.202868040070431,-2.3851897932665,0.0356597453355789,0.205690801143646,-0.12348860502243,Z
1525788589.96078,0.211151010584971,0.205367556860196,-2.40188016007624,0.0887182950973511,0.133904427289963,-0.0919818878173828,Z
1525788589.97078,0.216181221444147,0.20999963463499,-2.41840256285736,0.0281414240598679,0.0991913676261902,0.0272263288497925,Z
1525788589.98038,0.220367116939351,0.215164020289663,-2.43556655906394,-0.00674515962600708,0.093085303902626,0.151115775108337,Z
1525788589.99121,0.225332853561559,0.219282028323947,-2.45337556294193,0.0505352467298508,0.0966335237026215,0.26525217294693,Z
1525788590.00056,0.232038981192418,0.221392647245795,-2.47087012494475,0.127640247344971,0.11761400103569,0.323332190513611,Z
1525788590.01047,0.239473275280956,0.221409043575263,-2.48726448445854,0.179365754127502,0.137466430664062,0.293573617935181,Z
1525788590.02111,0.246712655619516,0.220223929237822,-2.50285817452555,0.219230815768242,0.157886013388634,0.231395363807678,Z
1525788590.03066,0.253576563997699,0.218814267112014,-2.51779596128403,0.249880358576775,0.178711712360382,0.189598619937897,Z
1525788590.04059,0.260107834941582,0.21769244795459,-2.53264512965099,0.295210927724838,0.207401663064957,0.152645587921143,Z
1525788590.05058,0.265325149227076,0.217414892800967,-2.54757538802986,0.370949059724808,0.225273355841637,0.129117786884308,Z
1525788590.06072,0.268430524541365,0.218556955072585,-2.56261829234651,0.465990036725998,0.217492520809174,0.113416314125061,Z
1525788590.07062,0.269249211703789,0.22173559360288,-2.5773953999694,0.576350808143616,0.163251906633377,0.192124724388123,Z
1525788590.08051,0.268681388153668,0.226552414141672,-2.59099579056638,0.593251824378967,0.143412113189697,0.362962126731873,Z
1525788590.09108,0.267557276698331,0.230915581860258,-2.60271678577804,0.594874858856201,0.135622441768646,0.576577305793762,Z
1525788590.10065,0.266514753118727,0.232389443175942,-2.61179469146812,0.579570114612579,0.109499573707581,0.695689857006073,Z
1525788590.11072,0.265551600772655,0.229855398480718,-2.61771186679239,0.524734318256378,0.0904313325881958,0.656030058860779,Z
1525788590.12088,0.265279813182363,0.224107842977736,-2.62145614229458,0.493721008300781,0.0705032050609589,0.517821252346039,Z
1525788590.1306,0.265330799601282,0.216699623860017,-2.62393367276301,0.46913942694664,0.0586965680122375,0.413795590400696,Z
1525788590.14053,0.265225804279871,0.208796330777742,-2.62598911079052,0.446782559156418,0.0747446715831757,0.315808296203613,Z
1525788590.15056,0.264297031681932,0.201213015767117,-2.62825710292008,0.469122052192688,0.0879348069429398,0.25853043794632,Z
1525788590.16071,0.262085666420983,0.194388976139639,-2.63081258116652,0.503459513187408,0.104757636785507,0.234998762607574,Z
1525788590.17048,0.258472720966813,0.188528095528434,-2.63308091916613,0.539223194122314,0.118702948093414,0.226735353469849,Z
1525788590.18071,0.253275723710665,0.183538023659294,-2.63478543897495,0.549194931983948,0.145827174186707,0.236840188503265,Z
1525788590.1911,0.247267142316862,0.178858650495732,-2.63559547484126,0.542962908744812,0.183399707078934,0.307159900665283,Z
1525788590.20051,0.241973222624198,0.173331129279995,-2.63515713471822,0.557856023311615,0.200235515832901,0.355748414993286,Z
1525788590.21062,0.237496472268761,0.166586765577221,-2.63282179645403,0.57377302646637,0.20057687163353,0.345636129379272,Z
1525788590.22436,0.233407884350875,0.159056718455891,-2.62890088077527,0.579089879989624,0.205383971333504,0.315263092517853,Z
1525788590.23101,0.228780878275122,0.151000568944606,-2.62334431570041,0.573870778083801,0.207281649112701,0.291672587394714,Z
1525788590.24067,0.223151337881891,0.142005799174019,-2.61620188091592,0.56455409526825,0.204791933298111,0.229472279548645,Z
1525788590.25061,0.217246855407375,0.13218389386164,-2.60705352994537,0.509574413299561,0.212762430310249,0.13565468788147,Z
1525788590.26089,0.212139377572165,0.122144093714784,-2.59622517680787,0.425721496343613,0.209166660904884,0.061851978302002,Z
1525788590.27062,0.207958321028983,0.1125166544228,-2.5841730255398,0.32284277677536,0.184041485190392,-0.0047072172164917,Z
1525788590.28076,0.204744337445633,0.104115159876883,-2.57212908315839,0.225930526852608,0.167388468980789,-0.00475049018859863,Z
1525788590.29097,0.202478194796528,0.0971413470507413,-2.56119691074471,0.19683849811554,0.152149170637131,0.0731890201568604,Z
1525788590.30053,0.199821948626743,0.0912638131303114,-2.5520720461794,0.249642670154572,0.146343469619751,0.157663583755493,Z
1525788590.31054,0.195720587938451,0.0863242459289916,-2.54404199377244,0.314597308635712,0.164784580469131,0.260885536670685,Z
1525788590.3243,0.189907848020801,0.0815552505928514,-2.53610213637882,0.367751985788345,0.199277982115746,0.367429375648499,Z
1525788590.33076,0.182573890974392,0.0753745830352167,-2.52639105715041,0.386810064315796,0.211259037256241,0.420345723628998,Z
1525788590.34067,0.176158087223264,0.0666569658773872,-2.51435188792147,0.348868191242218,0.235491901636124,0.415656864643097,Z
1525788590.35094,0.17262845990267,0.0549025971009309,-2.49973658892515,0.306666433811188,0.249760270118713,0.358606457710266,Z
1525788590.36076,0.171621286793276,0.040607851892548,-2.48284322754312,0.227676182985306,0.250344008207321,0.240981817245483,Z
1525788590.37087,0.172344338069779,0.0252267753310264,-2.46507318231761,0.129877462983131,0.260484099388123,0.143456518650055,Z
1525788590.38074,0.173275185956958,0.0100473250920816,-2.44795670106893,0.0551536381244659,0.261832445859909,0.0932672023773193,Z
1525788590.39352,0.17221701283964,-0.00409283454615901,-2.43203846200879,0.0385191142559052,0.245800361037254,0.0658416152000427,Z
1525788590.40067,0.168462920355717,-0.017232903636032,-2.4171394176311,0.0759642422199249,0.210947886109352,0.03127521276474,Z
1525788590.41068,0.16412494662798,-0.029820149100803,-2.40214487948408,0.10748128592968,0.199294984340668,0.0256127715110779,Z
1525788590.42425,0.160947762977062,-0.0429348685181104,-2.38632800318203,0.125996202230453,0.207719191908836,0.031164288520813,Z
1525788590.43083,0.159958013645932,-0.0572565448402907,-2.36878682463255,0.11329260468483,0.188502267003059,-0.0115609765052795,Z
1525788590.44071,0.161602869621028,-0.0725526184091135,-2.34966420007645,0.0388026833534241,0.177556782960892,-0.0627756118774414,Z
1525788590.45067,0.165271902722935,-0.088201674800872,-2.33014857738592,-0.0535141676664352,0.169923514127731,-0.08073890209198,Z
1525788590.46083,0.169949688749116,-0.103594416563058,-2.31158330260561,-0.113004446029663,0.159957468509674,-0.0862495303153992,Z
1525788590.47083,0.173502494381776,-0.118345305866907,-2.29488794486093,-0.0855951011180878,0.161868497729301,-0.0943370461463928,Z
1525788590.48072,0.174408604195527,-0.13246242146045,-2.27926808308835,-0.0275353640317917,0.16714945435524,-0.132089853286743,Z
1525788590.4914,0.173886610202959,-0.146051277575499,-2.26361348166438,0.0114933252334595,0.17310144007206,-0.191078424453735,Z
1525788590.50113,0.173307684852196,-0.159142322624198,-2.24691092325159,0.00947090983390808,0.157873779535294,-0.243232548236847,Z
1525788590.5107,0.173885163216023,-0.171966833645974,-2.22910785737551,-0.0530877113342285,0.138571888208389,-0.256795704364777,Z
1525788590.52425,0.176132249345751,-0.184673511941157,-2.21057305196474,-0.152544409036636,0.127562135457993,-0.293473064899445,Z
1525788590.53062,0.17885234661551,-0.196542542954578,-2.19267970031218,-0.277273774147034,0.104280933737755,-0.285476744174957,Z
1525788590.54075,0.181335851710226,-0.207498368862503,-2.17661439813589,-0.3469158411026,0.0911828577518463,-0.23860627412796,Z
1525788590.55071,0.182683010712059,-0.217717821169307,-2.16320674807038,-0.331447899341583,0.101289376616478,-0.190535128116608,Z
1525788590.5611,0.18218327941124,-0.227974955511716,-2.1512071300033,-0.264441013336182,0.088386744260788,-0.188723981380463,Z
1525788590.57359,0.181294563625341,-0.238580641738311,-2.13965183639923,-0.217600017786026,0.0852400064468384,-0.249679565429688,Z
1525788590.58079,0.181877731287749,-0.249122000563214,-2.12778538216555,-0.207702487707138,0.077497735619545,-0.284801542758942,Z
1525788590.59158,0.18438318881947,-0.259434832807497,-2.11553170974042,-0.235737428069115,0.0639917850494385,-0.304609060287476,Z
1525788590.60116,0.187737089239046,-0.269074065862363,-2.10318597115418,-0.313877433538437,0.0445248186588287,-0.293918788433075,Z
1525788590.61076,0.190839135170638,-0.278115012147353,-2.09185741174994,-0.381124645471573,0.0286332964897156,-0.276356816291809,Z
1525788590.6266,0.193269384920938,-0.286814477609743,-2.08188484083998,-0.395251393318176,0.0211941301822662,-0.289909422397614,Z
1525788590.63095,0.194562958332687,-0.295236604378528,-2.07355734414077,-0.377797931432724,0.0237005352973938,-0.31884092092514,Z
1525788590.64074,0.194754950387053,-0.303167552508928,-2.06566906000594,-0.406670033931732,0.0343866944313049,-0.365512013435364,Z
1525788590.65096,0.194408795362976,-0.310940034345126,-2.05891760361486,-0.416466414928436,0.0209352970123291,-0.396454930305481,Z
1525788590.66092,0.195172724806737,-0.318519887940274,-2.05262399016738,-0.422660559415817,0.0322366952896118,-0.444994330406189,Z
1525788590.67354,0.197202661945546,-0.325210134782068,-2.04703373257114,-0.432300209999084,0.0389057695865631,-0.47404158115387,Z
1525788590.68069,0.199546559159152,-0.330629061603071,-2.04227549102148,-0.448520749807358,0.0321581661701202,-0.460839629173279,Z
1525788590.69147,0.201481142720239,-0.335067344150006,-2.03891883943773,-0.465160429477692,0.0406282842159271,-0.429330229759216,Z
1525788590.70072,0.202602981215822,-0.338874093747717,-2.03652910816701,-0.46866112947464,0.0363184809684753,-0.428624212741852,Z
1525788590.7107,0.203036493388516,-0.342096541092692,-2.03512800353141,-0.467120349407196,0.0236527323722839,-0.447231888771057,Z
1525788590.72445,0.202968414375421,-0.344653860781309,-2.03439400696816,-0.486384689807892,0.00880876183509827,-0.48421037197113,Z
1525788590.73073,0.202642856518272,-0.34641047863753,-2.03461974897822,-0.534396231174469,-0.00669899582862854,-0.512868642807007,Z
1525788590.74083,0.202630865063034,-0.347430457150562,-2.03587068458962,-0.576490700244904,-0.0073072612285614,-0.53572803735733,Z
1525788590.75102,0.203432599021241,-0.347678352638416,-2.0384781418534,-0.580584168434143,-0.00570929050445557,-0.556287467479706,Z
1525788590.76086,0.205228903384319,-0.346852983690709,-2.04195390328025,-0.586094558238983,0.00245207548141479,-0.546711564064026,Z
1525788590.77089,0.20781115954361,-0.344981768111335,-2.04652681749952,-0.601328134536743,-0.000929772853851318,-0.511188328266144,Z
1525788590.78069,0.210862906653074,-0.342028367459903,-2.05206693938579,-0.619879007339478,-0.00251290202140808,-0.466668844223022,Z
1525788590.79134,0.213852285238661,-0.337930825489347,-2.0591077567728,-0.607068061828613,-0.01125368475914,-0.414321899414062,Z
1525788590.80118,0.216486021181157,-0.332719900683035,-2.06723245063899,-0.602051377296448,-0.00505125522613525,-0.328384518623352,Z
1525788590.81083,0.218287745282185,-0.326945288181231,-2.07662176616046,-0.606514930725098,-0.00503528118133545,-0.263022065162659,Z
1525788590.82418,0.219039579456509,-0.320797924120617,-2.08708765376408,-0.598113536834717,-0.00547888875007629,-0.210058450698853,Z
1525788590.8308,0.218804563464962,-0.314448798861051,-2.09887072802997,-0.566114962100983,-0.00985386967658997,-0.155675709247589,Z
1525788590.8408,0.218196138164208,-0.308316402200777,-2.11129700682804,-0.522942304611206,-0.0132174491882324,-0.105025231838226,Z
1525788590.85097,0.217708245873962,-0.302556358276609,-2.12419059960673,-0.508977055549622,-0.016772449016571,-0.0670396089553833,Z
1525788590.86128,0.217346203609943,-0.297306392011836,-2.13723254714549,-0.52269172668457,-0.0107955634593964,-0.0288751125335693,Z
1525788590.87096,0.217033811622498,-0.292826749043356,-2.15107188411838,-0.528448402881622,-0.00814220309257507,-0.0176356434822083,Z
1525788590.88084,0.216497232179639,-0.288928114988465,-2.16559899957911,-0.508457243442535,-0.0106024444103241,-0.0289453268051147,Z
1525788590.89129,0.215576064651013,-0.285047895629539,-2.18117220840298,-0.51298725605011,-0.0132133066654205,-0.0262793302536011,Z
1525788590.90123,0.2137696876662,-0.28107638909304,-2.19799080386168,-0.512490153312683,-0.0157627463340759,-0.0260162353515625,Z
1525788590.91084,0.210799494999859,-0.276917027678127,-2.2165399290575,-0.483512043952942,-0.0100705027580261,-0.027224600315094,Z
1525788590.92431,0.206603068469863,-0.272577010813395,-2.23628600902038,-0.432731240987778,-0.00744965672492981,-0.0379921793937683,Z
1525788590.93103,0.201570253992934,-0.268018371085884,-2.25700731595597,-0.415685832500458,0.00690743327140808,-0.0424700379371643,Z
1525788590.94099,0.196519426371106,-0.263416452164871,-2.27835830758016,-0.43096861243248,0.0261183381080627,-0.0208057761192322,Z
1525788590.95102,0.192373464358217,-0.259261638269452,-2.30095707364023,-0.455246210098267,0.0505788624286652,0.00888395309448242,Z
1525788590.9609,0.189292993912776,-0.255929766166563,-2.32477760115374,-0.403806924819946,0.0783979594707489,0.0376414060592651,Z
1525788590.971,0.186960162396018,-0.253407698837308,-2.34951435530017,-0.325185179710388,0.121671199798584,0.0496130585670471,Z
1525788590.98093,0.185234369949635,-0.251689984627153,-2.3746956724109,-0.22924679517746,0.157804027199745,0.059697687625885,Z
1525788590.99091,0.184031518146422,-0.251034879566285,-2.39991849696682,-0.144391238689423,0.189566493034363,0.0433939099311829,Z
1525788591.00081,0.183422299588892,-0.251130784470541,-2.42476058272041,-0.101280450820923,0.223897412419319,0.00696396827697754,Z
1525788591.01083,0.182898794202727,-0.251453106056512,-2.44917261913774,-0.100019574165344,0.234342679381371,-0.0279650688171387,Z
1525788591.02124,0.182096563419055,-0.251679302944725,-2.4735482130395,-0.101000040769577,0.260292410850525,-0.0583360195159912,Z
1525788591.031,0.180728802354027,-0.251414202906736,-2.49838321341065,-0.0628895163536072,0.278676629066467,-0.087710440158844,Z
1525788591.04091,0.17863853592671,-0.25010694134147,-2.52345033705313,-0.0291101038455963,0.299275875091553,-0.0780267119407654,Z
1525788591.05102,0.175897329966937,-0.247972486447023,-2.54882200837498,0.0378347337245941,0.306364595890045,-0.0558459162712097,Z
1525788591.061,0.172630635254203,-0.245177311202546,-2.57396629877458,0.0881538391113281,0.302498698234558,-0.0502607226371765,Z
1525788591.07091,0.169055051049932,-0.241710972142267,-2.59873179046165,0.112839505076408,0.299408376216888,-0.02643221616745,Z
1525788591.08093,0.165233287302252,-0.237901613183268,-2.6228792956701,0.104020535945892,0.273384630680084,-0.0161791443824768,Z
1525788591.09143,0.161325882648628,-0.233753788815103,-2.64684823314222,0.0929022282361984,0.251080960035324,-0.0103023052215576,Z
1525788591.10123,0.157414463960541,-0.229204081686836,-2.67091808246772,0.107161313295364,0.241745874285698,0.0140680074691772,Z
1525788591.11081,0.153714871692606,-0.224366180299462,-2.69510151800011,0.135349631309509,0.254638612270355,0.0731962919235229,Z
1525788591.12428,0.150659493961739,-0.219879131003198,-2.71949376898346,0.186821162700653,0.298215240240097,0.136026561260223,Z
1525788591.13104,0.148133164569998,-0.216159349082636,-2.74370335839867,0.262703061103821,0.339765071868896,0.150754332542419,Z
1525788591.14109,0.145728842893712,-0.212680455259085,-2.76745365937825,0.357158035039902,0.351007282733917,0.156713366508484,Z
1525788591.15644,0.143063992234275,-0.209143383491276,-2.79007409820128,0.455760538578033,0.359974414110184,0.181319653987885,Z
1525788591.16095,0.139944092407429,-0.205535544202308,-2.81123463106497,0.531264424324036,0.346613496541977,0.178365647792816,Z
1525788591.17096,0.136480197272029,-0.201773882899674,-2.83023681604537,0.561039328575134,0.333268612623215,0.18752110004425,Z
1525788591.18112,0.133261529116193,-0.198053013639733,-2.84708499436608,0.561517655849457,0.322312712669373,0.196047484874725,Z
1525788591.19151,0.130317942707997,-0.194557125236033,-2.86193261026383,0.537739753723145,0.314449936151505,0.225713014602661,Z
1525788591.20126,0.127421792247535,-0.191784203052882,-2.87526776554611,0.518944621086121,0.296312510967255,0.248044848442078,Z
1525788591.21108,0.12449318365056,-0.190014910574893,-2.88747687075132,0.517955660820007,0.284469366073608,0.224370837211609,Z
1525788591.22441,0.121527938602415,-0.188774653403821,-2.89879937814115,0.529209554195404,0.286755561828613,0.201690256595612,Z
1525788591.23091,0.118376433777938,-0.187850146041666,-2.90932729645921,0.556081354618073,0.293462038040161,0.193626582622528,Z
1525788591.24095,0.114150921224495,-0.187049565594765,-2.91905514623916,0.609992206096649,0.29846003651619,0.12736177444458,Z
1525788591.25684,0.10815425328278,-0.185418466820685,-2.92747396280014,0.612565159797668,0.291258633136749,0.0504958033561707,Z
1525788591.26098,0.100651184904522,-0.182589191354908,-2.93493635289533,0.609456181526184,0.288531720638275,-0.00669229030609131,Z
1525788591.27097,0.0932935128777497,-0.178423443681828,-2.94103833379153,0.575740098953247,0.278667986392975,-0.051542341709137,Z
1525788591.28102,0.0883963380492808,-0.172902451517336,-2.94575717391234,0.511774659156799,0.270935654640198,-0.0123174786567688,Z
1525788591.29331,0.0865298354155012,-0.166928264929778,-2.94913313195639,0.446655005216599,0.268935024738312,0.0525092482566833,Z
1525788591.30155,0.0857754974751595,-0.161367428035997,-2.95164008892896,0.423987567424774,0.260779738426208,0.096310019493103,Z
1525788591.311,0.0850551784235878,-0.156395933959672,-2.95318596759827,0.442008852958679,0.222231566905975,0.095353901386261,Z
1525788591.32449,0.0838086290182346,-0.151524424147169,-2.95344754118933,0.409451365470886,0.175669103860855,0.0807907581329346,Z
1525788591.33094,0.0816611203136789,-0.146483481157216,-2.95292189656642,0.303046494722366,0.144261986017227,0.151627838611603,Z
0,0,0,0,0,0,0,0
1525788593.09543,0.133979296508567,0.15613240536941,-2.10897935901823,-0.0217244774103165,0.00155290961265564,0.0497992634773254,Z
1525788593.10174,0.136454492118029,0.160029794877174,-2.10982515658254,-0.00154182314872742,0.00106820464134216,0.0954316258430481,Z
1525788593.11154,0.137088696826236,0.162512218461584,-2.11056673123959,0.0153637230396271,-0.00316494703292847,0.11947226524353,Z
1525788593.12183,0.137784027756635,0.16379905461371,-2.11108764033535,0.057147428393364,-0.0156128406524658,0.0734863877296448,Z
1525788593.13172,0.138235901096326,0.164554649909239,-2.11117991925142,0.0658170878887177,-0.0115867704153061,0.0527033805847168,Z
1525788593.14156,0.138842318493705,0.164879538477315,-2.11084966149229,0.06926029920578,0.00220723450183868,0.0603652000427246,Z
1525788593.15496,0.139464798584403,0.164797828899082,-2.10976013053473,0.0532694756984711,0.00334733724594116,0.0604764223098755,Z
1525788593.16166,0.139967208642899,0.164329879894569,-2.1082875703571,0.0276062488555908,-0.00662052631378174,0.0608037710189819,Z
1525788593.17156,0.140255964033329,0.163426224567606,-2.10695433167042,0.0125330686569214,-0.00450608134269714,0.0350005030632019,Z
1525788593.18154,0.139956045553688,0.162327090501204,-2.10589564447835,-0.00460904836654663,0.00144362449645996,-0.0105427503585815,Z
1525788593.19165,0.139461434237441,0.161525910195607,-2.10520924506538,-0.0209435820579529,0.00271286070346832,-0.0306715965270996,Z
1525788593.20181,0.139279675422063,0.161003288230765,-2.10514952853483,-0.0225933790206909,0.0038449764251709,-0.0401308536529541,Z
1525788593.21156,0.139100260854688,0.160810605974207,-2.10542564231193,0.00820212066173553,0.00127440690994263,-0.0302032232284546,Z
1525788593.22211,0.139007074685191,0.160644603392936,-2.10580108495203,0.0179636031389236,-0.00313138961791992,-0.00605529546737671,Z
1525788593.23169,0.139242435685472,0.160096188386147,-2.10619100445351,0.0197812914848328,0.0123947262763977,-0.013386070728302,Z
1525788593.24158,0.13968794829239,0.15921681125697,-2.10652921711331,0.0282068997621536,0.0199188739061356,-0.0366089344024658,Z
1525788593.25248,0.140132887679074,0.158383688188343,-2.10666005632262,0.031079888343811,0.027946338057518,-0.0638682246208191,Z
1525788593.26169,0.140492476708374,0.157947455123409,-2.10672194003795,0.0400265455245972,0.0362893491983414,-0.0666574835777283,Z
1525788593.27156,0.140665306276548,0.157995180495236,-2.10656143050177,0.04710653424263,0.0296531319618225,-0.0433276295661926,Z
1525788593.28161,0.140604385840423,0.158410114731838,-2.10617762732057,0.0296123772859573,0.0258819758892059,-0.0112488865852356,Z
1525788593.2927,0.140592553602848,0.158801131431473,-2.10577973708357,0.0192261040210724,0.0315628796815872,0.0152876973152161,Z
1525788593.30185,0.140665587556575,0.158868252465946,-2.10541167514646,0.0285708606243134,0.033139780163765,0.0227591395378113,Z
1525788593.31157,0.14060901420923,0.158498433582087,-2.10487889507524,0.0236893892288208,0.0226732790470123,0.00938183069229126,Z
1525788593.32212,0.14039240552728,0.157957852668624,-2.10439929681298,0.0181977450847626,0.0119465887546539,-0.0190836191177368,Z
1525788593.33169,0.139883341012111,0.157544901271019,-2.10398765212205,0.0186407119035721,-0.00245353579521179,-0.032025933265686,Z
1525788593.34176,0.139185635852743,0.157507171456526,-2.10368566077617,0.0253647416830063,-0.0183294266462326,-0.0280332565307617,Z
1525788593.35968,0.138300383774905,0.157784764755413,-2.10331437186894,0.0114661455154419,-0.0127757489681244,-0.00290054082870483,Z
1525788593.36173,0.137346332727474,0.158116183000557,-2.10295898152173,0.000825121998786926,-0.00481905043125153,0.00469982624053955,Z
1525788593.37163,0.136489315611705,0.158304143768723,-2.10258562365969,0.0033765435218811,0.00670383870601654,0.0215706825256348,Z
1525788593.38158,0.135913142099856,0.15809892185192,-2.10214224276158,0.00314240157604218,0.00773714482784271,0.0250827074050903,Z
1525788593.3922,0.135351575704979,0.157492998750285,-2.10156359966446,-0.01515032351017,0.00230170786380768,-0.00581485033035278,Z
1525788593.40234,0.134725273276996,0.156906893695511,-2.10126097733322,-0.012077808380127,0.00515606999397278,-0.0422160029411316,Z
1525788593.41168,0.134053104724623,0.156614230768026,-2.10106769614321,-0.0124025493860245,0.0143884718418121,-0.0421580672264099,Z
1525788593.42538,0.133427530676206,0.156517660253147,-2.10086190066751,-0.00791642069816589,0.00527513027191162,-0.0397261381149292,Z
1525788593.43162,0.132917187231004,0.156516013172574,-2.10047194331413,-0.0162669122219086,3.97413969039917e-05,-0.0185713171958923,Z
1525788593.44159,0.132909291350993,0.156386053350426,-2.09974098945052,-0.0527151226997375,-0.010067880153656,-0.0138046741485596,Z
1525788593.45814,0.13287152676097,0.156142921530283,-2.09890179994753,-0.106729775667191,-0.0264976173639297,-0.0254199504852295,Z
1525788593.46157,0.132640956953872,0.15590875876083,-2.09852273114895,-0.141359910368919,-0.0426133424043655,-0.029565155506134,Z
1525788593.47175,0.132264595244988,0.155828935537265,-2.09881589512205,-0.170289874076843,-0.0439128875732422,-0.0293206572532654,Z
1525788593.48194,0.132027774182962,0.15575646334928,-2.09988469046666,-0.165649652481079,-0.0261774808168411,-0.0312623381614685,Z
1525788593.49334,0.131613164898069,0.155600546570554,-2.10131986662701,-0.157815754413605,-0.00646457076072693,-0.0553392171859741,Z
1525788593.50237,0.131039504270881,0.155470785845939,-2.10279540958284,-0.171370923519135,0.0106191486120224,-0.075142502784729,Z
1525788593.51165,0.130479616648873,0.155563828007933,-2.10422300915562,-0.206129476428032,0.0166620016098022,-0.0996971130371094,Z
1525788593.52465,0.129817516265438,0.156130807210216,-2.10574645844013,-0.248209372162819,0.00892132520675659,-0.0992417335510254,Z
1525788593.53164,0.128763129828344,0.157125870715721,-2.10769027012057,-0.29189532995224,0.00969058275222778,-0.0964537858963013,Z
1525788593.54184,0.12729341958997,0.158526742316297,-2.110255915773,-0.306159466505051,0.00609967112541199,-0.0723474025726318,Z
1525788593.55736,0.125889573256225,0.160287336008332,-2.11325768697242,-0.317841291427612,0.00875347852706909,-0.0451363921165466,Z
1525788593.56176,0.124704229394717,0.162121704318384,-2.11660478798095,-0.327141731977463,0.0163929164409637,-0.0125979781150818,Z
1525788593.57166,0.123922811908002,0.163439828632773,-2.12046157067826,-0.305735468864441,0.0201960504055023,-0.00233840942382812,Z
1525788593.58159,0.123552103893324,0.164108114707942,-2.12463341893662,-0.287903010845184,0.0201992690563202,-0.0269527435302734,Z
1525788593.59359,0.12307733603351,0.164508473845923,-2.12891137340052,-0.297760367393494,-0.00679528713226318,-0.0723397731781006,Z
1525788593.60226,0.12245655066759,0.165322031787042,-2.13336731747266,-0.339891374111176,-0.0262106657028198,-0.104776501655579,Z
1525788593.61169,0.121810095248244,0.166948292630993,-2.13845947149302,-0.384117156267166,-0.0446415841579437,-0.108124315738678,Z
1525788593.62459,0.120721366787022,0.169418365458979,-2.14460460899455,-0.43088373541832,-0.047943651676178,-0.0900028347969055,Z
1525788593.63168,0.119729578651717,0.172378384682219,-2.15236264961023,-0.435697197914124,-0.0219859927892685,-0.075279176235199,Z
1525788593.64173,0.119186229475921,0.175641500379828,-2.16174503884475,-0.37876307964325,0.0209159553050995,-0.053513765335083,Z
1525788593.65731,0.119249597446578,0.178865316151256,-2.1719542842414,-0.316898286342621,0.0700487196445465,-0.0434807538986206,Z
1525788593.66177,0.120129826795157,0.181762455028566,-2.18229934956131,-0.272224813699722,0.112663298845291,-0.0478994250297546,Z
1525788593.67171,0.122164153838133,0.184233736647621,-2.19239662020661,-0.236146524548531,0.133464902639389,-0.0762823224067688,Z
1525788593.6816,0.124844153437784,0.186879671098407,-2.201891729866,-0.214301496744156,0.110720574855804,-0.108417510986328,Z
1525788593.69207,0.127595066767426,0.190271878581829,-2.21098041387626,-0.227613762021065,0.0483482778072357,-0.0769330859184265,Z
1525788593.70245,0.130372797422931,0.194435438767442,-2.21979796243116,-0.300695598125458,0.00166906416416168,-0.00026857852935791,Z
1525788593.71183,0.132277632328173,0.19876989602151,-2.22930316316475,-0.344337403774261,-0.044464498758316,0.0589501857757568,Z
1525788593.72452,0.133017149201892,0.202868623824287,-2.24007785896845,-0.34888431429863,-0.0769319236278534,0.078216016292572,Z
1525788593.73193,0.133130314507096,0.206562866893538,-2.25214988917607,-0.348940253257751,-0.0750085413455963,0.0804018974304199,Z
1525788593.74179,0.133762090256218,0.209327744949386,-2.26544737308671,-0.336552798748016,-0.0735544413328171,0.114406645298004,Z
1525788593.75753,0.13641839140942,0.210505637665815,-2.27969985441283,-0.329084277153015,-0.042602002620697,0.114286541938782,Z
1525788593.7618,0.140967371424776,0.210104528749745,-2.29453242656792,-0.311224043369293,-0.0169932842254639,0.0590974688529968,Z
1525788593.77171,0.146459411185961,0.208777510933076,-2.31003425124836,-0.291464239358902,0.0200998038053513,-0.00679802894592285,Z
1525788593.78169,0.152415712591412,0.207332929311213,-2.32631426829374,-0.253448307514191,0.0517521798610687,-0.066055953502655,Z
1525788593.79273,0.15838493441576,0.20663106374808,-2.34328900259174,-0.205729469656944,0.0759828984737396,-0.10255366563797,Z
1525788593.80223,0.163747381351432,0.207239463196435,-2.36095616907148,-0.174665167927742,0.0888463854789734,-0.0924255847930908,Z
1525788593.81169,0.168079472823356,0.208983134510671,-2.37924501296441,-0.152449399232864,0.0934668481349945,-0.0578821897506714,Z
1525788593.827,0.17172089461063,0.211553204335696,-2.3981320597962,-0.130737408995628,0.075319916009903,-0.0066753625869751,Z
1525788593.83174,0.174828747844017,0.214435673705254,-2.41750937312673,-0.125018537044525,0.0571564137935638,0.0720347166061401,Z
1525788593.84185,0.178594505757436,0.216615499578802,-2.43745619016437,-0.11578631401062,0.0654198229312897,0.149923861026764,Z
1525788593.85763,0.183427357140893,0.217322292170133,-2.45776383655922,-0.0804996192455292,0.0891203135251999,0.159529387950897,Z
1525788593.86192,0.18897733437231,0.216748840541791,-2.4781817443184,-0.0339992046356201,0.105497568845749,0.136339068412781,Z
1525788593.87176,0.195563241214955,0.215292147817862,-2.49871580953337,0.0310685038566589,0.141458779573441,0.142862558364868,Z
1525788593.88171,0.20316861421423,0.213011707834158,-2.51924107730695,0.102164059877396,0.17884224653244,0.152104437351227,Z
1525788593.89196,0.21079534948632,0.210153745593238,-2.53946824083651,0.180970653891563,0.205466955900192,0.13258945941925,Z
1525788593.90231,0.217239825909029,0.207355204246056,-2.55953862592846,0.268650382757187,0.232178628444672,0.0860713720321655,Z
1525788593.91173,0.221713439475579,0.205482956579499,-2.57908532412339,0.347240030765533,0.265075147151947,0.0565771460533142,Z
1525788593.92457,0.224130976930505,0.204668027463529,-2.59789457929978,0.413803726434708,0.271708309650421,0.037477970123291,Z
1525788593.93179,0.225015526159532,0.205100197728995,-2.6153582473888,0.427215456962585,0.276846408843994,0.0486587285995483,Z
1525788593.94184,0.225846507935499,0.206316871012391,-2.63160455929964,0.451639860868454,0.283805251121521,0.148439109325409,Z
1525788593.95739,0.227954098818254,0.206915570236017,-2.64628891326556,0.487392604351044,0.276548206806183,0.256940484046936,Z
1525788593.96186,0.230848925986522,0.2059011474912,-2.65914363094921,0.511670470237732,0.255764663219452,0.293012917041779,Z
1525788593.97175,0.234000152081495,0.203493592823448,-2.67045554997389,0.552317500114441,0.240086436271667,0.272957324981689,Z
1525788593.98171,0.237085012426659,0.200512677055059,-2.68062894541082,0.576857686042786,0.239348143339157,0.270422697067261,Z
1525788593.99216,0.239745414557072,0.197389480433635,-2.68987151283019,0.609013557434082,0.249882161617279,0.259755969047546,Z
1525788594.00194,0.240999196126851,0.194877197408965,-2.69853146682826,0.642279028892517,0.269192337989807,0.26654577255249,Z
1525788594.01181,0.239471656263212,0.193449858597666,-2.70637908979425,0.658577144145966,0.281784117221832,0.317356050014496,Z
1525788594.02229,0.235060639363427,0.192705639612286,-2.71349108462003,0.674409031867981,0.292268931865692,0.355987966060638,Z
1525788594.03198,0.228562962327655,0.192254408938185,-2.71953068263294,0.70647519826889,0.302552968263626,0.391610085964203,Z
1525788594.04182,0.220761690880603,0.191394667780712,-2.72402808171465,0.74668025970459,0.298092663288116,0.441205441951752,Z
1525788594.05577,0.212575097919265,0.189231589997742,-2.72606706577436,0.775774896144867,0.28373110294342,0.437717974185944,Z
1525788594.06206,0.204264661705699,0.185599907116811,-2.72518599382642,0.740867972373962,0.270946681499481,0.37370890378952,Z
1525788594.07186,0.196012308082265,0.181068172184209,-2.72149119320735,0.645277440547943,0.241069763898849,0.330919921398163,Z
1525788594.08181,0.187789640685645,0.175750363487475,-2.71587316159526,0.509547352790833,0.229488715529442,0.291916310787201,Z
1525788594.09264,0.17988789061386,0.169923132720153,-2.70923661410685,0.421878397464752,0.191262349486351,0.253965020179749,Z
1525788594.10194,0.172753096255176,0.163898773585952,-2.70246594796887,0.358972996473312,0.187335878610611,0.22581946849823,Z
1525788594.11189,0.166681246632953,0.157924955886394,-2.69595477102734,0.370654284954071,0.173245280981064,0.206718027591705,Z
1525788594.12236,0.161035878669036,0.152420285908893,-2.68962923759921,0.403697729110718,0.167760983109474,0.201921224594116,Z
1525788594.13189,0.154704439534349,0.147630951837137,-2.6830506874078,0.413933277130127,0.180328905582428,0.236739218235016,Z
1525788594.14191,0.14780127707746,0.142991302756636,-2.67603990724149,0.428519010543823,0.197359874844551,0.296980500221252,Z
1525788594.15264,0.141332438456219,0.137252137197397,-2.6678632480088,0.433338314294815,0.208705767989159,0.328069627285004,Z
1525788594.16199,0.136667209218815,0.129562101240129,-2.65838693300087,0.430283665657043,0.231571137905121,0.323268830776215,Z
1525788594.17199,0.133760643246817,0.120002415014523,-2.64725042351293,0.438519835472107,0.237054690718651,0.263129949569702,Z
1525788594.182,0.131249722396727,0.109280017398032,-2.63440888129212,0.391315519809723,0.24428603053093,0.158947169780731,Z
1525788594.19247,0.128613510113507,0.0987815652911177,-2.62055919643242,0.330831587314606,0.237643823027611,0.10548198223114,Z
1525788594.20203,0.125766390031204,0.0892849865272084,-2.60663907613595,0.273395240306854,0.241403341293335,0.10964047908783,Z
1525788594.21187,0.122107383779258,0.0808435378022635,-2.59297209556214,0.239174097776413,0.2327940762043,0.154244601726532,Z
1525788594.22437,0.117161219118831,0.0729889058097402,-2.57995052768318,0.242426663637161,0.218142002820969,0.196432769298553,Z
1525788594.23191,0.111284070111524,0.0648361281211574,-2.56708935397458,0.26622349023819,0.200502380728722,0.200741052627563,Z
1525788594.24182,0.105610427111308,0.0558567272279529,-2.55360254297275,0.288411676883698,0.191325724124908,0.167331218719482,Z
1525788594.25987,0.100627942962468,0.0459662879565775,-2.53920904643251,0.286778628826141,0.186330959200859,0.130868494510651,Z
1525788594.26179,0.0968017389262096,0.0350963556869835,-2.52344687195116,0.191738963127136,0.188012734055519,0.107269525527954,Z
1525788594.2719,0.0947455535763694,0.0229777667546324,-2.50725976682707,0.0812786519527435,0.187465488910675,0.0824256539344788,Z
1525788594.28199,0.0942563017255799,0.00984165589546621,-2.49144345613011,0.0294229164719582,0.183944284915924,0.0189352035522461,Z
1525788594.29289,0.0937126121447787,-0.00343343195856252,-2.47636269881241,0.0349040478467941,0.180328175425529,-0.0353537797927856,Z
1525788594.30231,0.0920281795420296,-0.0163503478510832,-2.46175918992365,0.0602288171648979,0.174919307231903,-0.0820014476776123,Z
1525788594.31186,0.089235004918098,-0.0290236982877543,-2.44702239961318,0.0978715941309929,0.146227568387985,-0.142978608608246,Z
1525788594.32457,0.0869113435730766,-0.04132271918481,-2.43154593267689,0.0910675376653671,0.127420723438263,-0.168946743011475,Z
1525788594.33195,0.0859207643723674,-0.0535288882405676,-2.41543371901952,0.069657564163208,0.116693206131458,-0.171101093292236,Z
1525788594.34216,0.0862119220843373,-0.0657589295928982,-2.39872649892544,0.0285676270723343,0.115257687866688,-0.16660338640213,Z
1525788594.35779,0.0877945202818682,-0.07772982710878,-2.38227133116398,-0.0134881883859634,0.131622716784477,-0.133430957794189,Z
1525788594.36199,0.0896103982474067,-0.0896441123420714,-2.36617021466337,-0.0159347653388977,0.144133746623993,-0.100861310958862,Z
1525788594.3719,0.0907996576663787,-0.101963788629246,-2.35018436684881,-0.00789807736873627,0.138676047325134,-0.107863664627075,Z
1525788594.38188,0.0921090455597648,-0.114745552855889,-2.33383647456052,-0.0034681111574173,0.116264745593071,-0.175048112869263,Z
1525788594.39268,0.0935836880302773,-0.127072876121979,-2.31711726583614,-0.035061240196228,0.0846640914678574,-0.226880967617035,Z
1525788594.40238,0.0944914580711838,-0.138544028802389,-2.30019574681907,-0.102876774966717,0.0583709329366684,-0.234276056289673,Z
1525788594.4119,0.0954249048455293,-0.149424106757517,-2.283773611666,-0.168605029582977,0.0585898160934448,-0.236985862255096,Z
1525788594.42457,0.0965316691670554,-0.159598839653764,-2.26829205148022,-0.222201585769653,0.0695782005786896,-0.194429337978363,Z
1525788594.43195,0.0974427742180416,-0.169729036954851,-2.25415707557679,-0.22946609556675,0.0805201381444931,-0.167894601821899,Z
1525788594.44205,0.0977256151481466,-0.180005896190354,-2.24097891105997,-0.205917969346046,0.0872915387153625,-0.201073229312897,Z
1525788594.45737,0.0972652565732044,-0.189701266983109,-2.22851385854777,-0.186113849282265,0.0765101611614227,-0.244886517524719,Z
1525788594.46216,0.0956274159131056,-0.198306577412529,-2.21626482487889,-0.179593712091446,0.0506712794303894,-0.254210829734802,Z
1525788594.47191,0.0931072021986958,-0.20621910674132,-2.20405443637848,-0.212767973542213,0.0280885398387909,-0.247366666793823,Z
1525788594.48192,0.0908605654666346,-0.214060819567019,-2.19197456371968,-0.248256355524063,0.0123627036809921,-0.249938070774078,Z
1525788594.49376,0.0898282914859162,-0.222373484572294,-2.18024702651138,-0.277806252241135,0.0193534046411514,-0.25623232126236,Z
1525788594.50418,0.0905222038090883,-0.231621617199021,-2.16884851423596,-0.300356388092041,0.0476350337266922,-0.269291400909424,Z
1525788594.51205,0.0932924477028017,-0.241434070136173,-2.15744421776357,-0.341324985027313,0.087885245680809,-0.312904834747314,Z
1525788594.52465,0.0976343934850269,-0.252040021651632,-2.14660532173704,-0.367302983999252,0.0992375165224075,-0.329388797283173,Z
1525788594.53199,0.103225868375307,-0.263222546987909,-2.13619404603707,-0.352896183729172,0.1004938185215,-0.431032359600067,Z
1525788594.54205,0.109186869137388,-0.273327193336168,-2.12569643768367,-0.351918876171112,0.0942143797874451,-0.53934645652771,Z
1525788594.5574,0.114071015342083,-0.280341696996228,-2.11583708550212,-0.369618833065033,0.0666692554950714,-0.588482201099396,Z
1525788594.56205,0.116978377959448,-0.283506746068627,-2.10691192138947,-0.401588201522827,0.0536651611328125,-0.505755364894867,Z
1525788594.57196,0.118320089872443,-0.283867435780586,-2.09959184783672,-0.403084397315979,0.0496872961521149,-0.389139771461487,Z
1525788594.59192,0.118764186973808,-0.282593872725827,-2.09328900023508,-0.403549909591675,0.0509101152420044,-0.388836801052094,Z
1525788594.59337,0.118566788644549,-0.281461102293176,-2.08767047969765,-0.439852207899094,0.0464591979980469,-0.14837372303009,Z
1525788594.60246,0.118450723973947,-0.282000351283578,-2.08225361849103,-0.470683872699738,0.0186890065670013,-0.135737836360931,Z
1525788594.61207,0.119577419234412,-0.284362229465146,-2.07706151017584,-0.497177124023438,0.00714385509490967,-0.213303804397583,Z
1525788594.62467,0.122271063352656,-0.28752497435831,-2.07195469727255,-0.519059300422668,-0.0214947164058685,-0.322762191295624,Z
1525788594.63203,0.125588632479423,-0.289996288613505,-2.06758950152344,-0.575015127658844,-0.0242299139499664,-0.381928622722626,Z
1525788594.64208,0.128618849611512,-0.291128629861616,-2.06420976340994,-0.635501503944397,-0.0227513313293457,-0.365681171417236,Z
1525788594.65733,0.131527113351761,-0.291270616345388,-2.06241281797849,-0.675596714019775,-0.0136404931545258,-0.333688497543335,Z
1525788594.66212,0.134561678502265,-0.29065449761046,-2.06211196621292,-0.673328757286072,-0.0254404246807098,-0.286383092403412,Z
1525788594.67201,0.137294146233141,-0.289734549177792,-2.06337865380211,-0.652765154838562,-0.0450972616672516,-0.252236366271973,Z
1525788594.68208,0.139520683229963,-0.288738635230994,-2.06576042767992,-0.62543797492981,-0.0547170639038086,-0.263556241989136,Z
1525788594.69299,0.14165443287461,-0.287504915525287,-2.06930317192057,-0.611429929733276,-0.065832793712616,-0.278235793113708,Z
1525788594.70235,0.144350758173375,-0.28596609637514,-2.07384835295767,-0.611656188964844,-0.0615491569042206,-0.2583829164505,Z
1525788594.71197,0.147742793055571,-0.284481355687562,-2.07959327031216,-0.599480211734772,-0.056523323059082,-0.229634702205658,Z
1525788594.72725,0.151548402215773,-0.283095172105085,-2.0862028100667,-0.596879243850708,-0.040513664484024,-0.224897503852844,Z
1525788594.73207,0.155314737451683,-0.281339035407094,-2.09398891479922,-0.599475979804993,-0.0177545845508575,-0.21362978219986,Z
1525788594.7422,0.158663069739325,-0.27902597911333,-2.1029362213859,-0.590119898319244,0.0118120014667511,-0.175399899482727,Z
1525788594.75755,0.161707593832989,-0.276213855178711,-2.11329427314855,-0.555215179920197,0.0431267023086548,-0.128963470458984,Z
1525788594.76214,0.164415180449953,-0.273030919872735,-2.12438682067727,-0.505573987960815,0.0620900094509125,-0.0844674706459045,Z
1525788594.77205,0.166915710370346,-0.269586137151177,-2.13594894058032,-0.472717136144638,0.0580693185329437,-0.0490878820419312,Z
1525788594.78201,0.169389283615154,-0.266142039767234,-2.14768784319886,-0.468431264162064,0.0481917262077332,-0.0107923746109009,Z
1525788594.79302,0.172077052336266,-0.263021929488156,-2.15997252365781,-0.477840274572372,0.0488228797912598,-0.0027385950088501,Z
1525788594.80264,0.174920195448534,-0.260174217181809,-2.17292059748245,-0.478460073471069,0.0414266288280487,0.0142058134078979,Z
1525788594.81205,0.177907238983263,-0.25769866307827,-2.1869979074364,-0.458495259284973,0.0485804080963135,0.0335186719894409,Z
1525788594.82469,0.180791174876103,-0.255577334152014,-2.20185643796988,-0.429857164621353,0.0599095821380615,0.0353056192398071,Z
1525788594.83217,0.182795883065283,-0.253407983143101,-2.21772427613061,-0.406473457813263,0.0717746913433075,0.0359039902687073,Z
1525788594.84216,0.18325341835741,-0.250906668177222,-2.23437355080763,-0.381372690200806,0.074929341673851,0.0361928343772888,Z
1525788594.85744,0.182233378550385,-0.247980221324985,-2.25179043036987,-0.353981673717499,0.0719363391399384,0.0415232181549072,Z
1525788594.86217,0.1804802726014,-0.24478774546091,-2.26989988438494,-0.341783940792084,0.0673572421073914,0.0650566816329956,Z
1525788594.872,0.178642824408685,-0.241877889676705,-2.28850186265668,-0.341039508581161,0.0663361549377441,0.0765630602836609,Z
1525788594.88207,0.176854967335768,-0.239458194279362,-2.30803409965797,-0.32641676068306,0.0662141889333725,0.0723260045051575,Z
1525788594.89313,0.174942038130647,-0.237479608297116,-2.32822045218173,-0.329917460680008,0.0707612782716751,0.0642155408859253,Z
1525788594.90234,0.173309602253291,-0.235995807008218,-2.34929321125987,-0.345321595668793,0.0733481198549271,0.0527940392494202,Z
1525788594.91207,0.172646840344626,-0.235291249233309,-2.37169042091493,-0.319263398647308,0.0660681128501892,0.065808117389679,Z
1525788594.92528,0.173013404397098,-0.235462602607216,-2.39514673209739,-0.292843759059906,0.0863330066204071,0.0560638904571533,Z
1525788594.93214,0.173601309254302,-0.236135808367542,-2.42003467742308,-0.228911340236664,0.108139380812645,0.0554289221763611,Z
1525788594.94222,0.173838112432629,-0.237096022420129,-2.44587067795119,-0.153110399842262,0.143537074327469,0.0507423877716064,Z
1525788594.95978,0.173637735578567,-0.237935241348313,-2.47199380234039,-0.0944585502147675,0.170278802514076,0.0463701486587524,Z
1525788594.96239,0.173187628779445,-0.238498043483731,-2.49834397985375,-0.0406295508146286,0.187706723809242,0.0703932046890259,Z
1525788594.97207,0.172883956049852,-0.239474260756542,-2.52450647590648,0.0204461216926575,0.199087381362915,0.0912734866142273,Z
1525788594.98208,0.172966760924453,-0.241200512463289,-2.55043530498408,0.0697234719991684,0.226020976901054,0.0601236820220947,Z
1525788594.99305,0.173110383387445,-0.243463328937772,-2.57605684252999,0.131889700889587,0.214379087090492,-0.00308781862258911,Z
1525788595.00206,0.172941971729959,-0.245182957767305,-2.60131713854157,0.154613748192787,0.198107868432999,-0.0712490081787109,Z
1525788595.01214,0.171707869962136,-0.245405892884573,-2.62647299337206,0.129450529813766,0.185074225068092,-0.0900484919548035,Z
1525788595.02268,0.169059295793481,-0.244051571486105,-2.65219335285759,0.0971830785274506,0.182497203350067,-0.0504099726676941,Z
1525788595.03228,0.165631044802605,-0.241850835096027,-2.67891779392083,0.10509093105793,0.20724681019783,0.0120829343795776,Z
1525788595.04216,0.162264149645388,-0.239638660916557,-2.70653730793056,0.163894861936569,0.259520351886749,0.0643302202224731,Z
1525788595.05281,0.159107749809132,-0.23796298730277,-2.73438061355423,0.270725339651108,0.277185440063477,0.0929373502731323,Z
1525788595.0623,0.156051137083886,-0.236676415006486,-2.76170446714885,0.368979424238205,0.312539339065552,0.0850353240966797,Z
1525788595.07217,0.152622429417902,-0.235291230932471,-2.78790959073681,0.451615184545517,0.319730252027512,0.0846471190452576,Z
1525788595.08225,0.148740198132142,-0.233750134758024,-2.81240674868674,0.489504814147949,0.327668368816376,0.10056734085083,Z
1525788595.09269,0.144470498463139,-0.232101627422751,-2.83502830872432,0.477064281702042,0.318484395742416,0.093997597694397,Z
1525788595.10214,0.139782234586654,-0.230125958433598,-2.85625479430683,0.465938568115234,0.307696938514709,0.0926811099052429,Z
1525788595.11223,0.135160880114198,-0.227770245223265,-2.87662863516859,0.497926712036133,0.337045013904572,0.126130342483521,Z
1525788595.12284,0.130345633364703,-0.225280649125448,-2.89597774403973,0.543000459671021,0.353371798992157,0.163591027259827,Z
1525788595.13219,0.124957982994311,-0.222864697236032,-2.91399480919288,0.585907816886902,0.357451558113098,0.205014407634735,Z
1525788595.14225,0.11916841035308,-0.220860666901534,-2.93066462437528,0.619963228702545,0.365891456604004,0.227868318557739,Z
1525788595.15269,0.11323022219394,-0.219605280092163,-2.94558335249794,0.639877736568451,0.366506189107895,0.209571182727814,Z
1525788595.16242,0.107358809554074,-0.218792488037358,-2.95875025083662,0.652436137199402,0.36171481013298,0.1407670378685,Z
1525788595.17272,0.101264451063758,-0.217470544716524,-2.96995588466162,0.654600739479065,0.345412045717239,0.0617150664329529,Z
1525788595.18228,0.095330426077196,-0.214898092329582,-2.97929045726453,0.624731004238129,0.352425962686539,0.0411502718925476,Z
1525788595.19263,0.0905199251894327,-0.211449923970349,-2.98701989246646,0.58959549665451,0.371360063552856,0.0712130069732666,Z
1525788595.20216,0.0869572004179686,-0.207770971522231,-2.99272620559742,0.568065822124481,0.361515462398529,0.107761025428772,Z
1525788595.21222,0.0842002219153281,-0.204466881834112,-2.99652581189133,0.534090936183929,0.339709937572479,0.124244689941406,Z
1525788595.22385,0.081638528675746,-0.201710373448931,-2.9989445540483,0.518005847930908,0.296511352062225,0.1244877576828,Z
1525788595.23219,0.0786138131341514,-0.199545421644665,-2.99993376495007,0.481146216392517,0.218402191996574,0.174715638160706,Z
1525788595.2423,0.0750864877349054,-0.197997338192034,-2.99968103244254,0.423947244882584,0.218424424529076,0.246590197086334,Z
0,0,0,0,0,0,0,0
1525788596.99819,0.0970362435591485,0.238405568433156,-2.07087020101201,-0.0578125491738319,-0.0183782577514648,-0.00152933597564697,Z
1525788597.00656,0.0985713011275232,0.243431548437288,-2.07185235580938,-0.0592095702886581,0.00124254822731018,0.0492251515388489,Z
1525788597.01278,0.0994487683274387,0.246961700258802,-2.07373929426317,0.00777711719274521,-0.000200450420379639,0.125726640224457,Z
1525788597.02398,0.100342613663688,0.248589514480472,-2.07560117187733,0.069698840379715,0.0194745808839798,0.0936115384101868,Z
1525788597.03291,0.10092567356283,0.248824798566962,-2.07652314954415,0.0856829211115837,0.0217015296220779,0.064291775226593,Z
1525788597.04283,0.101337076271631,0.248299128678459,-2.07646005031851,0.0665201023221016,0.00716918706893921,0.00996732711791992,Z
1525788597.05376,0.101336270215345,0.247740467710276,-2.0758242311503,0.0185791328549385,-0.0138038992881775,-0.0189641118049622,Z
1525788597.06294,0.100948134618827,0.24744268823498,-2.0752440554815,-0.0240073427557945,-0.0237666666507721,-0.00350320339202881,Z
1525788597.07283,0.100812991222406,0.247104013111207,-2.0751549019183,-0.0380760058760643,-0.0157790184020996,-0.00252246856689453,Z
1525788597.08293,0.100790991985089,0.246560127999035,-2.07572871928773,-0.0253728330135345,-0.00738000869750977,-0.0185471773147583,Z
1525788597.09329,0.100764907886136,0.246112222991377,-2.07683017870953,-0.0031418651342392,0.000379562377929688,-0.0346560478210449,Z
1525788597.10283,0.100782998746862,0.245973519924293,-2.07824246601683,0.0272480472922325,-0.00605683028697968,-0.0266896486282349,Z
1525788597.1128,0.100692251909528,0.246195906281339,-2.07950920400824,0.0314151719212532,-0.0130280256271362,-0.00465524196624756,Z
1525788597.12323,0.100303634991912,0.246605287734242,-2.08058728811542,0.01661766320467,-0.0136075913906097,0.0315991640090942,Z
1525788597.13295,0.0996616043512971,0.246766868865888,-2.08156318087496,-0.000993162393569946,-0.0106890499591827,0.0434476137161255,Z
1525788597.1467,0.098951728752896,0.24651439236777,-2.08270068561,-0.000314280390739441,-0.01093390583992,0.0435771942138672,Z
1525788597.15378,0.097939395612966,0.246252971633328,-2.08399193416409,0.018417701125145,0.0181857496500015,-0.0195563435554504,Z
1525788597.16296,0.0967587789944725,0.246332263699641,-2.08529541457838,0.0421421527862549,0.0270059406757355,-0.0273836255073547,Z
1525788597.17306,0.0957382370595756,0.246891026423426,-2.08625088204884,0.0556525588035583,0.0376338511705399,-0.0148205161094666,Z
1525788597.18313,0.0949391266149155,0.247732885357594,-2.08680514045627,0.0678112506866455,0.0289438664913177,0.0263078212738037,Z
1525788597.19305,0.0941606594589384,0.248390960106122,-2.08672098430604,0.034153938293457,0.00464893877506256,0.0591619610786438,Z
1525788597.20315,0.0934008254200452,0.248551125810104,-2.08644800349845,-0.00217270106077194,-0.00483936071395874,0.0392789840698242,Z
1525788597.21298,0.0924578450975302,0.248501559739113,-2.0862497612786,0.00602992624044418,-0.0315902829170227,0.0248190760612488,Z
1525788597.22339,0.0917915951576321,0.24832666277864,-2.08608266322033,-0.0162038952112198,-0.0302186906337738,0.0354651212692261,Z
1525788597.233,0.0915993897532781,0.247666921659887,-2.08612610801534,-0.0302543714642525,-0.0194751918315887,0.0223530530929565,Z
1525788597.24288,0.0914808924035224,0.246800135452646,-2.08657381819803,-0.0197223424911499,-0.0176758319139481,-0.0233389139175415,Z
1525788597.25394,0.0911922204873155,0.24625877301655,-2.08732060287693,0.000502891838550568,-0.0102357566356659,-0.0350531339645386,Z
1525788597.26308,0.0912386383583875,0.246002228604722,-2.08834879433392,0.0188086852431297,0.00460638105869293,-0.00475209951400757,Z
1525788597.27289,0.091477289676412,0.245607160790126,-2.08918645393174,0.0280451104044914,0.00898392498493195,0.0154793858528137,Z
1525788597.28295,0.0918265192967114,0.244824320274844,-2.08978042083327,0.0308641865849495,0.00921633839607239,0.0161716938018799,Z
1525788597.29305,0.0922733412126209,0.243883899672999,-2.09017173328603,0.0362556800246239,-0.00143125653266907,-0.0159139633178711,Z
1525788597.30295,0.0923821058924803,0.243235567670103,-2.09037042600941,0.030459888279438,-0.00666861236095428,-0.0114497542381287,Z
1525788597.31291,0.0922343453110896,0.242768766442725,-2.09037072435969,0.00707855075597763,-0.0106464922428131,0.00996130704879761,Z
1525788597.3232,0.0918548344132079,0.242121671928406,-2.09045581248739,-0.0135344639420509,-0.0133803635835648,0.0241726636886597,Z
1525788597.33308,0.0917733509236118,0.241121518289205,-2.09077961581323,-0.0142863243818283,-0.0123678147792816,0.0297435522079468,Z
1525788597.34312,0.0919537956020693,0.239838819516118,-2.09127645376209,0.00267726182937622,-0.00569428503513336,0.00883722305297852,Z
1525788597.35366,0.0920632147531372,0.238643277215517,-2.09176563945988,0.0191316902637482,0.00403898954391479,-0.00650018453598022,Z
1525788597.36309,0.0920068383850202,0.23746210380282,-2.09219149332984,0.0172990709543228,0.0112529397010803,0.00319689512252808,Z
1525788597.37286,0.0917381565470309,0.23605514976813,-2.09240549032034,0.00844989717006683,0.0116094797849655,0.00702846050262451,Z
1525788597.38303,0.0915692461895737,0.234338210721922,-2.09236747887467,-0.0134415850043297,0.00130334496498108,-0.0070691704750061,Z
1525788597.39329,0.0911323403619627,0.232469341023349,-2.09247832116111,-0.0332756191492081,-0.00796113908290863,-0.0264516472816467,Z
1525788597.40301,0.0902484196338407,0.230769184456569,-2.09261413784182,-0.0619341656565666,-0.0177030563354492,-0.031112015247345,Z
1525788597.413,0.089369862498337,0.22921794324334,-2.09312034553223,-0.074343279004097,-0.0191981941461563,-0.027768611907959,Z
1525788597.42322,0.0884398817129139,0.227859057365144,-2.09389442897459,-0.0663272812962532,-0.0205370038747787,-0.0313946008682251,Z
1525788597.43311,0.087340806546244,0.226654538852329,-2.09475405575635,-0.0568920820951462,-0.0187198221683502,-0.0199066400527954,Z
1525788597.44294,0.0865288698962423,0.225359332440716,-2.09530999743282,-0.0699381828308105,-0.0248038768768311,-0.010271430015564,Z
1525788597.45479,0.0857721208583031,0.223830089272388,-2.09549780215787,-0.123065486550331,-0.0200996398925781,-0.0360527038574219,Z
1525788597.46306,0.0852242954056586,0.222156472940067,-2.09573432445079,-0.166433811187744,-0.0274843871593475,-0.0579009056091309,Z
1525788597.47304,0.0848242359148867,0.220482951677111,-2.09634277584676,-0.214995786547661,-0.0311464965343475,-0.0698918700218201,Z
1525788597.48312,0.0845168526166605,0.219058835024614,-2.09757763043198,-0.248078852891922,-0.0260971486568451,-0.092918336391449,Z
1525788597.49313,0.0843022546129052,0.218260844135801,-2.09968101645794,-0.261770188808441,-0.0206810683012009,-0.079132616519928,Z
1525788597.50295,0.0842240507459727,0.218094414466107,-2.10233790983065,-0.269006103277206,-0.00964361429214478,-0.0463754534721375,Z
1525788597.51293,0.0840193984468897,0.218260546520721,-2.10535844571379,-0.295354276895523,0.00106239318847656,-0.00110644102096558,Z
1525788597.52311,0.0839363057968746,0.218255077400381,-2.10875837199335,-0.320236921310425,0.0136455595493317,0.0188295245170593,Z
1525788597.53309,0.0839914409790282,0.217894129120845,-2.11258694452769,-0.32940661907196,0.0110196173191071,0.00727564096450806,Z
1525788597.54304,0.0840006816654835,0.217377167203108,-2.1167950871815,-0.322848439216614,0.00323638319969177,-0.0241385102272034,Z
1525788597.55386,0.0833715759568582,0.217129398001083,-2.12144960758537,-0.325872331857681,-0.00739678740501404,-0.0437940955162048,Z
1525788597.56312,0.0822230142697692,0.217150884844542,-2.12647150840116,-0.34900039434433,0.0028170645236969,-0.055455207824707,Z
1525788597.57299,0.08063137653302,0.217373795072199,-2.13184591493112,-0.383503943681717,0.00483527779579163,-0.0785242915153503,Z
1525788597.58307,0.0787589531308696,0.217909730113661,-2.13774641696779,-0.419468283653259,0.00729644298553467,-0.0828886032104492,Z
1525788597.5936,0.0773399752597776,0.218515002665111,-2.1442514351367,-0.450761318206787,0.0233597606420517,-0.0689952373504639,Z
1525788597.60304,0.0766661125381426,0.219053899410038,-2.1514071936024,-0.475380271673203,0.0165158212184906,-0.0765685439109802,Z
1525788597.613,0.0768707773164248,0.219818400056688,-2.15951221777999,-0.46209317445755,-0.00706051290035248,-0.0621776580810547,Z
1525788597.62391,0.077478671944595,0.220964902908893,-2.16855764260542,-0.426578223705292,-0.0353606939315796,-0.0418281555175781,Z
1525788597.63316,0.0780771568748444,0.22236412427185,-2.17842056982367,-0.413617104291916,-0.0536185204982758,0.0196942090988159,Z
1525788597.64306,0.0792484066530726,0.223420823768935,-2.18913822006441,-0.409320622682571,-0.0416474044322968,0.0498891472816467,Z
1525788597.65423,0.0802623499145544,0.223983892380457,-2.2007748065482,-0.397860318422318,-0.0338656902313232,0.0345034003257751,Z
1525788597.6631,0.0809806897354794,0.224394503248692,-2.21325434804453,-0.38318544626236,-0.00708290934562683,0.00129020214080811,Z
1525788597.67306,0.082037418324894,0.224916942928743,-2.22663459978822,-0.351960897445679,0.0233488827943802,-0.0160758495330811,Z
1525788597.68313,0.0834018458756453,0.225606597100897,-2.24065579635677,-0.323213756084442,0.0474433600902557,-0.018856942653656,Z
1525788597.69312,0.0848401963533864,0.226447070357858,-2.25519779683096,-0.307825326919556,0.0648945271968842,-0.0133488178253174,Z
1525788597.7029,0.0865117570561974,0.227269044899712,-2.27022864612858,-0.272109270095825,0.0610720217227936,-0.0109715461730957,Z
1525788597.71312,0.0885613486619341,0.228099741688328,-2.28536472667807,-0.281467169523239,0.0663063228130341,-0.0066332221031189,Z
1525788597.72488,0.0910080102107797,0.228984183386247,-2.30099542845833,-0.300485253334045,0.0780320465564728,0.0125763416290283,Z
1525788597.73296,0.0937063315742418,0.229744719349693,-2.31753307605039,-0.283279865980148,0.0912085622549057,0.0102545022964478,Z
1525788597.74315,0.0968521206642447,0.230498393431454,-2.33514862532182,-0.225017920136452,0.108055651187897,0.0106006860733032,Z
1525788597.75777,0.10054864582965,0.231341574938257,-2.35343363594606,-0.133120805025101,0.120457872748375,0.0283645987510681,Z
1525788597.76309,0.104344878294708,0.232212656972344,-2.37160813498635,-0.0907856971025467,0.118787974119186,0.0550398826599121,Z
1525788597.77302,0.107643031449491,0.2330152030661,-2.38961978193161,-0.0881438404321671,0.126435354351997,0.0579801201820374,Z
1525788597.7833,0.110284249506976,0.233886684865844,-2.40769671602247,-0.107918672263622,0.139093488454819,0.034657895565033,Z
1525788597.79366,0.112545553304074,0.235175909039454,-2.42607284082418,-0.119867257773876,0.141583383083344,0.035870373249054,Z
1525788597.80374,0.115029523946547,0.236863165155943,-2.44500867377057,-0.143736839294434,0.154652699828148,0.104234933853149,Z
1525788597.81299,0.118775553114518,0.238162539790663,-2.46450118835459,-0.0992977917194366,0.151978835463524,0.176168978214264,Z
1525788597.82475,0.123857850703756,0.238303542073939,-2.48448015456941,-0.0110718309879303,0.147904425859451,0.204423129558563,Z
1525788597.83322,0.129340045280113,0.237264449837542,-2.50452839516265,0.0922698080539703,0.159849286079407,0.171812474727631,Z
1525788597.84304,0.134511750792942,0.235672463604562,-2.52415279091436,0.177263528108597,0.185706377029419,0.143520951271057,Z
1525788597.85766,0.139921382507635,0.233761228512648,-2.54319006948932,0.254769831895828,0.221918225288391,0.14333313703537,Z
1525788597.86312,0.145822758481016,0.231593326673729,-2.56133927353232,0.337119072675705,0.251547038555145,0.146657109260559,Z
1525788597.87304,0.151281305989376,0.229375793558476,-2.57832436406317,0.395890593528748,0.261045873165131,0.138482809066772,Z
1525788597.88316,0.154528270233721,0.227760351494512,-2.5942362779919,0.446313351392746,0.208645403385162,0.130702972412109,Z
1525788597.894,0.15494146696602,0.22713145994368,-2.60884853660146,0.415360927581787,0.147974118590355,0.166242480278015,Z
1525788597.90382,0.15391116785294,0.226886721676048,-2.62284440531405,0.360863417387009,0.123672544956207,0.219719767570496,Z
1525788597.91307,0.152227263471283,0.225975725111151,-2.6367452007159,0.330761462450027,0.123349368572235,0.232974171638489,Z
1525788597.92491,0.150575142959506,0.223959829030772,-2.65086440531987,0.370570003986359,0.143646866083145,0.203495025634766,Z
1525788597.93324,0.149626157743237,0.220884389854491,-2.66486047853773,0.439071714878082,0.176398515701294,0.184376239776611,Z
1525788597.9432,0.15025784118713,0.216824781087546,-2.67798922569709,0.533545196056366,0.199062332510948,0.187505483627319,Z
1525788597.95758,0.152177086744504,0.212039838319644,-2.68912165316235,0.570951402187347,0.230931788682938,0.180432319641113,Z
1525788597.96329,0.154291234880318,0.206540580828983,-2.6986001481963,0.585853576660156,0.241055458784103,0.16292005777359,Z
1525788597.97312,0.15636629518336,0.200734999027844,-2.70669346803771,0.619476616382599,0.259112536907196,0.135735213756561,Z
1525788597.9831,0.157770805060809,0.195264446952534,-2.7135649649129,0.641126275062561,0.269160240888596,0.104478180408478,Z
1525788597.99313,0.157632025369452,0.19078653002648,-2.71964560493334,0.66485333442688,0.297358274459839,0.0858166813850403,Z
1525788598.00304,0.155581419274412,0.187425195474886,-2.72479778153734,0.67986673116684,0.322880685329437,0.0902186632156372,Z
1525788598.01335,0.152423469515684,0.184926926025429,-2.72892637347904,0.723008275032043,0.330603212118149,0.118434429168701,Z
1525788598.02349,0.149329099561645,0.182800007691016,-2.73140471439575,0.73773729801178,0.356649369001389,0.165647566318512,Z
1525788598.03314,0.146390706112661,0.180419446742877,-2.7319509539343,0.743401110172272,0.361372768878937,0.204325139522552,Z
1525788598.04313,0.143677770570852,0.17736148703321,-2.73008368904479,0.716194212436676,0.349330425262451,0.203280985355377,Z
1525788598.05425,0.141220882563748,0.17371359058559,-2.72621669488878,0.673210263252258,0.309209018945694,0.179001748561859,Z
1525788598.06324,0.138867733341577,0.170089797681824,-2.72087521253673,0.626621961593628,0.278172850608826,0.159690797328949,Z
1525788598.07319,0.136407643719851,0.166969565671817,-2.71494398586654,0.590393424034119,0.253948122262955,0.175815999507904,Z
1525788598.08308,0.133796791833055,0.16452786461647,-2.70888394604267,0.5582075715065,0.24859493970871,0.210314452648163,Z
1525788598.09331,0.13000704369297,0.162785018446009,-2.70321066760345,0.574129641056061,0.254397958517075,0.242002010345459,Z
1525788598.10335,0.124149393630824,0.161397996136844,-2.69706060760094,0.619020104408264,0.266624689102173,0.269217073917389,Z
1525788598.1132,0.116980456744425,0.159749387484008,-2.68956996279873,0.63996022939682,0.290845692157745,0.26749175786972,Z
1525788598.12392,0.110213785705311,0.157187853755883,-2.67997379321095,0.629753291606903,0.312928676605225,0.29915314912796,Z
1525788598.1333,0.10542046571633,0.152669649198582,-2.66772833349751,0.600268006324768,0.320259630680084,0.31181526184082,Z
1525788598.14317,0.102935876630902,0.145853862318305,-2.65264921644358,0.520376622676849,0.31850928068161,0.290495812892914,Z
