Time,Roll,Pitch,Yaw,AccelX,AccelY,AccelZ,Letter,Name
1526529329.64945,-0.0214206489168877,0.0300670593307071,1.39108386182404,0.146943390369415,-0.0695010721683502,0.0214439034461975,C
1526529329.65982,-0.0249882817958178,0.0324719007312538,1.39452159714934,0.163049295544624,-0.0617110542953014,-0.00886541604995728,C
1526529329.66945,-0.0290023676189222,0.0340220649851222,1.39719062863502,0.150029495358467,-0.0495721437036991,-0.0203624963760376,C
1526529329.67962,-0.0319350491538845,0.0348592173267235,1.39924965810164,0.150013238191605,-0.0309589989483356,-0.0431398749351501,C
1526529329.68951,-0.0333655141658528,0.0354785066708206,1.40159624302091,0.161893621087074,-0.0197504907846451,-0.0584061145782471,C
1526529329.69975,-0.0334691311617757,0.036506210532014,1.40458374746799,0.17916202545166,-0.0206918381154537,-0.0602775812149048,C
1526529329.70987,-0.032519248280397,0.0383218936908447,1.40878457137487,0.192310199141502,-0.0188926830887794,-0.0460013747215271,C
1526529329.71985,-0.0313052750413498,0.0408550735911318,1.41408911930983,0.195550158619881,-0.0115244574844837,-0.0358394980430603,C
1526529329.72995,-0.0300965774736921,0.0438666428257003,1.42052103475445,0.190280362963676,-0.00576900690793991,-0.0257370471954346,C
1526529329.73984,-0.0289786293163028,0.0469961395499144,1.42727640894508,0.19547700881958,-0.0141936466097832,-0.0192696452140808,C
1526529329.75003,-0.0283162218276869,0.0499395427725418,1.43382918647921,0.20094558596611,-0.0113605111837387,-0.0291283130645752,C
1526529329.76012,-0.0276191875610957,0.0528599499859391,1.43960325993097,0.194752395153046,0.0204409286379814,-0.0217515230178833,C
1526529329.77003,-0.0261161093068994,0.0560000055516748,1.44518009422784,0.184107482433319,0.0498672239482403,-0.0116128325462341,C
1526529329.78024,-0.0237198291062821,0.0591114815610367,1.45078065878119,0.184641137719154,0.0839336290955544,-0.0150890946388245,C
1526529329.79022,-0.0206128445157229,0.0618154664247684,1.45665201873742,0.183642685413361,0.115899033844471,-0.0178845524787903,C
1526529329.80042,-0.0169343790656106,0.0641644799854455,1.46299956124706,0.176810830831528,0.139834582805634,-0.0151100754737854,C
1526529329.81046,-0.0130120931040706,0.0663668090435847,1.47009081517391,0.175153493881226,0.162448465824127,-0.00773352384567261,C
1526529329.82057,-0.0092434769171294,0.0687287976792547,1.47807742335563,0.16536471247673,0.185633316636086,-0.00147294998168945,C
1526529329.83064,-0.0057710402509085,0.0714715673578531,1.48690044682411,0.14485539495945,0.212340921163559,0.00292330980300903,C
1526529329.8406,-0.00276491391383401,0.0746625892883766,1.49657548629822,0.124873295426369,0.228661239147186,0.00563281774520874,C
1526529329.8507,-0.000125839033584498,0.0784176464934865,1.50684190926192,0.107867762446404,0.245253190398216,0.017236053943634,C
1526529329.86085,0.00229065555482202,0.0825342454349226,1.51750077252478,0.0885984897613525,0.273175418376923,0.0234485268592834,C
1526529329.87086,0.00462447200299162,0.086512447414475,1.52841407680506,0.0700693577528,0.28684401512146,0.0265225768089294,C
1526529329.88094,0.00727891457304021,0.0899218752134009,1.539768156865,0.0514511205255985,0.288653284311295,0.0312113165855408,C
1526529329.89288,0.0104249084697358,0.0925545024195126,1.55146944804222,0.0201832577586174,0.286849915981293,0.0302723050117493,C
1526529329.90104,0.0141161379920792,0.0945900106662936,1.56344021047188,-0.016661811619997,0.279965370893478,0.0335465669631958,C
1526529329.91114,0.0183153072936475,0.0962837045659995,1.57534878645113,-0.05074592679739,0.271443247795105,0.0379713177680969,C
1526529329.92113,0.0224784997316016,0.0978153455910742,1.58689398004306,-0.076339490711689,0.26053175330162,0.0402866005897522,C
1526529329.93109,0.0262741038630737,0.0994452047764926,1.5979212271637,-0.0941496938467026,0.255363523960114,0.0514018535614014,C
1526529329.94126,0.0295158289522819,0.101188214151957,1.60834205185422,-0.103289410471916,0.251558840274811,0.0547232031822205,C
1526529329.95133,0.0322434568829763,0.103110706856054,1.6183373484765,-0.108055397868156,0.249946519732475,0.0597687959671021,C
1526529329.96165,0.0349647756713112,0.105070390488494,1.62804514944266,-0.109685495495796,0.244647681713104,0.0651200413703918,C
1526529329.97144,0.0379854088022083,0.106789752686041,1.63783836872192,-0.10740102827549,0.241322010755539,0.0704898238182068,C
1526529329.98154,0.041920052975357,0.108050145107549,1.64786177749208,-0.108939364552498,0.244131535291672,0.0867695808410645,C
1526529329.99419,0.0468613952335674,0.10848513198415,1.65824840675531,-0.103743508458138,0.234371095895767,0.104052186012268,C
1526529330.00169,0.0520841108427858,0.107869141431114,1.6688443034938,-0.0973206907510757,0.220956578850746,0.114314138889313,C
1526529330.01228,0.057112998333484,0.106493397529496,1.67963712952832,-0.114772453904152,0.209487408399582,0.132590293884277,C
1526529330.02178,0.0616742763316338,0.104764507268708,1.69037734984594,-0.129717618227005,0.194752424955368,0.137950420379639,C
1526529330.0319,0.0653887616270698,0.102982154606507,1.70098743539869,-0.147256076335907,0.184205859899521,0.12836354970932,C
1526529330.04187,0.068374591109653,0.101282828473005,1.71109606089161,-0.160485178232193,0.172978639602661,0.115871429443359,C
1526529330.05195,0.0711114857303039,0.0996009295531404,1.72076856640801,-0.153081580996513,0.172678515315056,0.106130063533783,C
1526529330.06198,0.0743796645006901,0.0976241875507092,1.72966216618477,-0.133115544915199,0.180797442793846,0.10250198841095,C
1526529330.07209,0.0784234616214814,0.094585755089101,1.73821788671966,-0.11081451177597,0.186729937791824,0.0866621136665344,C
1526529330.08211,0.0830953281941569,0.0900802739629157,1.74652297618489,-0.0930696502327919,0.193565681576729,0.0759128928184509,C
1526529330.09338,0.0886655065359433,0.0840934484150451,1.75536374650428,-0.0876718237996101,0.194544300436974,0.0664342641830444,C
1526529330.10225,0.0957916867383169,0.0768381177669259,1.76470609221567,-0.0846055299043655,0.190608352422714,0.0564272999763489,C
1526529330.11237,0.104771871390445,0.0685513242842201,1.77490941421563,-0.0801646634936333,0.182602867484093,0.0482254028320312,C
1526529330.12224,0.115337617310541,0.0593486504507117,1.78558137019125,-0.0791432783007622,0.169558569788933,0.0347123742103577,C
1526529330.13255,0.126611564767457,0.0496695442222425,1.79684501859915,-0.0863227993249893,0.144146800041199,0.0319851636886597,C
1526529330.14246,0.136954056739769,0.0400569880543164,1.80782895641533,-0.0855591297149658,0.130225718021393,0.0218538045883179,C
1526529330.15246,0.145121470246921,0.0311156387362636,1.81857142740982,-0.0940816700458527,0.119916766881943,0.00443500280380249,C
1526529330.16266,0.151489026047688,0.0234575238861638,1.82890253003111,-0.106694400310516,0.111147627234459,0.00745469331741333,C
1526529330.17272,0.156447145832449,0.0175546915670725,1.83939249204479,-0.123009666800499,0.119863972067833,0.0122309327125549,C
1526529330.18267,0.160224859015875,0.0133564934721564,1.84995044431749,-0.138468638062477,0.133015513420105,0.017711341381073,C
1526529330.19296,0.163212049300725,0.0103855716545716,1.86146833212601,-0.160709410905838,0.134714007377625,0.0254591107368469,C
1526529330.2029,0.166117379670077,0.00771876863495437,1.87399545269513,-0.204243943095207,0.12603534758091,0.0136388540267944,C
1526529330.21292,0.169176819476176,0.00440052968431225,1.88808368587688,-0.252612888813019,0.115103028714657,-0.0127765536308289,C
1526529330.22298,0.172710839773451,0.000147490103339415,1.90271373336438,-0.274209201335907,0.0880838930606842,-0.0227371454238892,C
1526529330.23306,0.176749501373644,-0.00473938593509536,1.91738334578217,-0.27092120051384,0.0495208874344826,-0.0177587866783142,C
1526529330.24307,0.180808339521015,-0.00971731038395371,1.93039530504075,-0.263632565736771,0.0128811150789261,-0.0112223625183105,C
1526529330.25311,0.184394050190711,-0.0144571893537809,1.94174603211409,-0.273159921169281,-0.00835317373275757,-0.00750476121902466,C
1526529330.26325,0.187052190765851,-0.0188854291227251,1.95102307161324,-0.292466729879379,-0.0152832344174385,0.00093454122543335,C
1526529330.2733,0.188249829335166,-0.022910951727083,1.95906623019802,-0.299547791481018,-0.0244653448462486,0.0147581696510315,C
1526529330.28321,0.187840704959236,-0.0265139277063322,1.9656181556199,-0.291194796562195,-0.040472611784935,0.0210490226745605,C
1526529330.29341,0.186223337130419,-0.0297305878568386,1.9712307399901,-0.285255938768387,-0.0435354113578796,0.02499920129776,C
1526529330.30354,0.184076029927716,-0.0327753618131438,1.97558160364334,-0.268571972846985,-0.0550625883042812,0.0245378613471985,C
1526529330.31354,0.182044557129351,-0.0361661192605625,1.97947000041423,-0.244719043374062,-0.0728098452091217,0.0105255842208862,C
1526529330.32359,0.180353628599029,-0.0406045232783526,1.98245224830821,-0.24476583302021,-0.0754596963524818,-0.0168795585632324,C
1526529330.33371,0.179245242111285,-0.0462788508649747,1.98537095363621,-0.256861656904221,-0.0967231467366219,-0.0399952530860901,C
1526529330.3437,0.178741223227422,-0.052584843293372,1.98767337109842,-0.269814848899841,-0.118905827403069,-0.0481163263320923,C
1526529330.35416,0.178440495898331,-0.0587081474644996,1.98950449927288,-0.272281736135483,-0.128742784261703,-0.0453921556472778,C
1526529330.36385,0.178060391905154,-0.0641954538699358,1.98984407949003,-0.266843736171722,-0.147479623556137,-0.0428489446640015,C
1526529330.3739,0.177416321229615,-0.0692342414857858,1.98908853443043,-0.27275887131691,-0.153132796287537,-0.0439509749412537,C
1526529330.38397,0.176370947955418,-0.0740141989233721,1.98688379021462,-0.279637336730957,-0.154619857668877,-0.034033477306366,C
1526529330.39417,0.174645193963443,-0.0787714022950309,1.98394014319546,-0.275300920009613,-0.165893942117691,-0.029421329498291,C
1526529330.40407,0.171824061139052,-0.0836796204622803,1.97950696972686,-0.255235403776169,-0.166605070233345,-0.0300918221473694,C
1526529330.41415,0.167893933452373,-0.0886826444624169,1.97399632213706,-0.235647916793823,-0.174091964960098,-0.0277028679847717,C
1526529330.42558,0.163010742267413,-0.0935311906586998,1.96683991398422,-0.209233343601227,-0.185420632362366,-0.0334100127220154,C
1526529330.4343,0.157524465255443,-0.0981580838376934,1.95846864608831,-0.185720473527908,-0.176064491271973,-0.0468763709068298,C
1526529330.4444,0.151645322484049,-0.102635136374427,1.94847389188571,-0.17314250767231,-0.15886677801609,-0.0662859678268433,C
1526529330.45438,0.145522107521117,-0.106965355816855,1.93765695712393,-0.163406118750572,-0.137385874986649,-0.0808776021003723,C
1526529330.46449,0.139314416742938,-0.111068920250367,1.92583884572844,-0.154915079474449,-0.120652094483376,-0.0873711109161377,C
1526529330.4744,0.132887946185109,-0.114756135400004,1.91358825010605,-0.148333877325058,-0.100542642176151,-0.0924400091171265,C
1526529330.4846,0.12639488148792,-0.11794602493,1.90052766467934,-0.148376002907753,-0.0809143260121346,-0.0993129014968872,C
1526529330.49546,0.119894630167273,-0.120575104083408,1.88732994962049,-0.146525293588638,-0.0694866478443146,-0.106383621692657,C
1526529330.50472,0.113409136233399,-0.122478703410944,1.87369429209503,-0.134596139192581,-0.0604661777615547,-0.103834092617035,C
1526529330.51476,0.10674881634362,-0.123583428694523,1.85983792963959,-0.114324152469635,-0.0554895550012589,-0.0908524990081787,C
1526529330.52583,0.100154276105094,-0.123978652669611,1.84550901037092,-0.0989752113819122,-0.0432932525873184,-0.0751189589500427,C
1526529330.53491,0.094257267998688,-0.12413421908808,1.83126450376761,-0.102853894233704,-0.0357266664505005,-0.0624241828918457,C
1526529330.54492,0.089085316018936,-0.124588389822523,1.81697095334724,-0.104208007454872,-0.0407091975212097,-0.0519243478775024,C
1526529330.55501,0.0841186435737517,-0.125569845561434,1.80271407638418,-0.102339789271355,-0.0525777637958527,-0.0406489968299866,C
1526529330.5651,0.0790318732548567,-0.126921371831265,1.78818990087111,-0.100561812520027,-0.0613037794828415,-0.0272543430328369,C
1526529330.57513,0.0737338699893333,-0.128432524027184,1.77342470107616,-0.089616060256958,-0.0712559968233109,-0.0167455077171326,C
1526529330.58519,0.068122655611128,-0.129924239554569,1.75783729492696,-0.053885355591774,-0.0830807536840439,-0.00914227962493896,C
1526529330.59559,0.0620400761169939,-0.131448827810847,1.74130348078699,-0.00177296996116638,-0.0925726890563965,-0.00330257415771484,C
1526529330.60531,0.055811334140324,-0.132832444580881,1.72373879705434,0.0418312847614288,-0.0981098860502243,0.0169596672058105,C
1526529330.61537,0.0497299393692299,-0.134032428099592,1.7057228944525,0.082267202436924,-0.0969188362360001,0.0359017252922058,C
1526529330.62578,0.0433889973556712,-0.135160364038608,1.68768183736111,0.124470204114914,-0.0924518555402756,0.0414599180221558,C
1526529330.63539,0.0366055697286412,-0.136096973844731,1.67008229722654,0.161678060889244,-0.0802725553512573,0.0475530624389648,C
1526529330.64558,0.0294362262896672,-0.136700606629353,1.65318478645567,0.210130944848061,-0.07281394302845,0.0474766492843628,C
1526529330.65583,0.0219919736846802,-0.13691678678994,1.63702865574504,0.259663969278336,-0.0709071308374405,0.0374439358711243,C
1526529330.66578,0.0148533771734586,-0.136683189723072,1.62167885788329,0.301661431789398,-0.0612152814865112,0.0304191708564758,C
1526529330.67577,0.00848675471308205,-0.136204745304581,1.60679683892049,0.342269450426102,-0.0407370030879974,0.0115454196929932,C
1526529330.68585,0.00284548458523844,-0.135983567348361,1.59258653866454,0.373950809240341,-0.0260830521583557,-0.0162249207496643,C
1526529330.69587,-0.00227096031496178,-0.136177941093378,1.57895647673016,0.386847704648972,-0.005523681640625,-0.0348197817802429,C
1526529330.70593,-0.00712411059858969,-0.136629006372342,1.56619706161284,0.393608570098877,0.0196031779050827,-0.0524818301200867,C
1526529330.71603,-0.0116172799428378,-0.136859649323531,1.55419981877989,0.39752522110939,0.0291860997676849,-0.0694770216941833,C
1526529330.7263,-0.0155511511672426,-0.136485526626913,1.54324773676457,0.405298471450806,0.0372776687145233,-0.0827846527099609,C
1526529330.73614,-0.0187390981614177,-0.13541674208055,1.53323320863777,0.406582176685333,0.0555027276277542,-0.0927799940109253,C
1526529330.74626,-0.021242474368414,-0.133833240779616,1.52438136409102,0.383965969085693,0.0874216258525848,-0.109783232212067,C
1526529330.75624,-0.0223882276103538,-0.131869480549919,1.51646411824904,0.351842850446701,0.101956591010094,-0.126637756824493,C
1526529330.76634,-0.0211566726621552,-0.129212662464122,1.50971446793363,0.319715291261673,0.0826639235019684,-0.130842983722687,C
1526529330.77639,-0.0172126360709144,-0.125457250300665,1.50375310875278,0.29185676574707,0.0723050683736801,-0.132228970527649,C
1526529330.78649,-0.0109551641872018,-0.120443997887785,1.49886574874282,0.252315402030945,0.0667213872075081,-0.120341956615448,C
1526529330.79661,-0.00278263023045171,-0.114549229157649,1.49470167075865,0.209734603762627,0.0629777312278748,-0.0802122354507446,C
1526529330.8066,0.00714485595988777,-0.109012821018368,1.49133126112769,0.142235398292542,0.0734692066907883,0.00816768407821655,C
0,0,0,0,0,0,0,0,0
1526529331.75245,0.0127841350419124,0.00575951720561961,1.35518730816057,0.027148675173521,0.00118184834718704,0.0230035185813904,C
1526529331.76257,0.0128619633656331,0.00521130709655609,1.35362910705061,0.0414751134812832,-0.00171620678156614,0.025752067565918,C
1526529331.77273,0.0130934469848742,0.00463667824426753,1.3518351462795,0.0632162690162659,-0.00552569143474102,0.0277965664863586,C
1526529331.78271,0.013446992519596,0.00419143885186581,1.35059856439741,0.0825770944356918,-0.00870225019752979,0.0276412963867188,C
1526529331.79295,0.0137709865095298,0.00372730211925646,1.34963315921382,0.102593071758747,-0.0136219495907426,0.0191395878791809,C
1526529331.80283,0.0143704284983157,0.00310568461319299,1.34959337605901,0.115390881896019,-0.0150217618793249,0.0164782404899597,C
1526529331.81289,0.015720615197461,0.00223400258249396,1.34968943746596,0.129253834486008,-0.00418994948267937,0.022975742816925,C
1526529331.82386,0.0175525641949149,0.000914458053592274,1.35038443335237,0.13918662071228,0.000655058771371841,0.0212993621826172,C
1526529331.83303,0.0195685068191509,-0.000861910073310211,1.3512584963958,0.155832529067993,-0.00876596197485924,0.0275028347969055,C
1526529331.84308,0.0210411892372893,-0.00280495392301133,1.35291217449143,0.183672368526459,-0.0148136168718338,0.027545690536499,C
1526529331.85317,0.0212031102604892,-0.00444895001257202,1.35484819917769,0.205101788043976,-0.0158014744520187,0.015680193901062,C
1526529331.8632,0.0202076234701778,-0.00526294565750667,1.35769657836302,0.216946125030518,-0.0257707349956036,0.00750291347503662,C
1526529331.87337,0.0184853695639458,-0.0050968436689029,1.36089099062359,0.23061566054821,-0.0381015837192535,-0.00622636079788208,C
1526529331.88326,0.0163911947236523,-0.00447885588049979,1.36456912453426,0.245252162218094,-0.0503315031528473,-0.037223219871521,C
1526529331.89335,0.0146364099482461,-0.00401786327441427,1.36810310443942,0.24546554684639,-0.0577440485358238,-0.0583427548408508,C
1526529331.90349,0.0135540044058058,-0.00394127939589138,1.37176604281607,0.254589229822159,-0.051350325345993,-0.0620503425598145,C
1526529331.91356,0.0130225420166756,-0.00401877386246629,1.3750724256695,0.268655180931091,-0.0189418587833643,-0.0513013601303101,C
1526529331.92359,0.0129486920843697,-0.00379778167170127,1.37868000038444,0.268347531557083,0.0242783986032009,-0.0380244255065918,C
1526529331.93357,0.0131116656227454,-0.00314982527114912,1.38266482317333,0.265361666679382,0.0606014020740986,-0.0348809361457825,C
1526529331.9437,0.0134570293274173,-0.00215367790747919,1.38743374390579,0.265367269515991,0.089429572224617,-0.0308698415756226,C
1526529331.95385,0.0139400735549124,-0.000836023619127597,1.39301449362741,0.257727861404419,0.11580216139555,-0.0175840854644775,C
1526529331.96384,0.0144980803924799,0.000772953711429604,1.39973804333754,0.245969966053963,0.146463871002197,-0.000929355621337891,C
1526529331.97382,0.0149527396129617,0.00264257624609067,1.40759333591006,0.230546534061432,0.176318109035492,0.0153876543045044,C
1526529331.98395,0.0155381030158078,0.00457314104276815,1.41673297459615,0.210216462612152,0.187495484948158,0.0276398062705994,C
1526529331.99426,0.0165514629644419,0.00612876947047094,1.42681701979201,0.177388817071915,0.208383977413177,0.0263792872428894,C
1526529332.00404,0.0184771186887974,0.0068763302652324,1.43738218737238,0.130221277475357,0.232981011271477,0.02521151304245,C
1526529332.01414,0.0212618151525518,0.00660977351287291,1.44822272169768,0.0978808775544167,0.235796734690666,0.0275078415870667,C
1526529332.02615,0.0243178185498757,0.00583390071035013,1.45912088021896,0.0692061111330986,0.242863893508911,0.0488511323928833,C
1526529332.03428,0.0270536614994804,0.00512678933016045,1.47026171353258,0.0412635952234268,0.254440128803253,0.0700860023498535,C
1526529332.0444,0.0290101254385366,0.00476927950953542,1.48168628851223,0.0126965455710888,0.256417214870453,0.0777538418769836,C
1526529332.05438,0.030277372763287,0.00486489048076384,1.49367930900603,-0.0208577141165733,0.249325931072235,0.0790585875511169,C
1526529332.06447,0.031219382237899,0.00547611699241078,1.50598077310709,-0.0535069331526756,0.235609143972397,0.0823376774787903,C
1526529332.07446,0.0321127361616589,0.00627490603749565,1.51840908399537,-0.0851613879203796,0.226535484194756,0.0763537287712097,C
1526529332.08468,0.0334401409918191,0.00686927612224831,1.53093435682515,-0.119721569120884,0.219729334115982,0.0739870071411133,C
1526529332.09498,0.0355614749893505,0.00701092083237959,1.54359937855098,-0.14593517780304,0.210700437426567,0.0774834156036377,C
1526529332.1048,0.0385533737566979,0.00663160951723651,1.55596134747333,-0.159911379218102,0.200738608837128,0.0841194987297058,C
1526529332.11472,0.0421814622725128,0.00576885716165424,1.56764996602985,-0.16933499276638,0.201005026698112,0.09098219871521,C
1526529332.12657,0.0462896864400711,0.00460056796937063,1.57862870900981,-0.18437996506691,0.208885222673416,0.0883804559707642,C
1526529332.13502,0.050905292134914,0.00335589517780443,1.58891214517167,-0.182078093290329,0.204481989145279,0.091594398021698,C
1526529332.14504,0.0554971343570918,0.00202764403133937,1.59852324097728,-0.155917137861252,0.196714535355568,0.09675532579422,C
1526529332.15753,0.0599381894295851,0.000557451200528117,1.60769164689559,-0.148494809865952,0.201653033494949,0.104298293590546,C
1526529332.16511,0.0644573878383556,-0.00108580208023109,1.61681719934991,-0.14484179019928,0.19936890900135,0.115857720375061,C
1526529332.1751,0.0689754197981423,-0.00297399282505473,1.6259665064223,-0.130459114909172,0.195466563105583,0.124021291732788,C
1526529332.18524,0.0734878209512756,-0.00524581525755152,1.63523037551958,-0.117060795426369,0.192645445466042,0.123355150222778,C
1526529332.19634,0.0781058380773576,-0.00817202826921108,1.64453495233986,-0.118612200021744,0.18273076415062,0.107101440429688,C
1526529332.20532,0.08285098347895,-0.0117234095479696,1.65404951783618,-0.129244044423103,0.17304553091526,0.0894575715065002,C
1526529332.21534,0.0873873386943939,-0.0156248175242252,1.6635685305324,-0.14473007619381,0.163697108626366,0.0647878050804138,C
1526529332.22668,0.0915093592078159,-0.0195118846225328,1.67331131949758,-0.166284918785095,0.144536584615707,0.0394339561462402,C
1526529332.23539,0.095229033508592,-0.0230355533399294,1.68298065895496,-0.187345057725906,0.134223565459251,0.0214192271232605,C
1526529332.24568,0.098542309647665,-0.0261566020335564,1.69256696108323,-0.202002167701721,0.131286561489105,0.0101123452186584,C
1526529332.25562,0.101504600863193,-0.02901979202336,1.70179958360414,-0.214202702045441,0.124060451984406,0.00329881906509399,C
1526529332.26581,0.104235201354947,-0.0318116877090318,1.71105402986964,-0.221776440739632,0.110542923212051,0.0017133355140686,C
1526529332.27576,0.106740829230769,-0.0346436506165841,1.72006317851798,-0.233534201979637,0.0930183082818985,-0.00189405679702759,C
1526529332.28591,0.109234302589921,-0.0375206662898781,1.72894842721511,-0.242988869547844,0.0687503442168236,-0.0031203031539917,C
1526529332.29592,0.11138106747349,-0.0405218674882978,1.73734744316471,-0.239706456661224,0.040574423968792,-0.00591427087783813,C
1526529332.3059,0.113076470548806,-0.0435591645759938,1.74534976596311,-0.242855504155159,0.0216401554644108,-0.00310277938842773,C
1526529332.31604,0.114369921092716,-0.0467353002131909,1.75251261337665,-0.251874476671219,0.0148814469575882,-0.00743544101715088,C
1526529332.32665,0.115515927280602,-0.0502969011981854,1.75917673132567,-0.253159612417221,0.00532732903957367,-0.0112936496734619,C
1526529332.33603,0.116640374388376,-0.0543719470025694,1.76512209609568,-0.251763105392456,0.00238701701164246,-0.0140921473503113,C
1526529332.3462,0.117681151392412,-0.058790740123496,1.77060676460222,-0.24773046374321,-0.000453043729066849,-0.0140956044197083,C
1526529332.35627,0.117942181579766,-0.0630959446303461,1.77541585786349,-0.23935241997242,0.000834465026855469,-0.0138678550720215,C
1526529332.36632,0.117292735505119,-0.0666728356572661,1.77999192345469,-0.244159504771233,0.00712227821350098,-0.0063011646270752,C
1526529332.37644,0.115710439802333,-0.0692588262828662,1.78439353126029,-0.249895364046097,-0.0104266107082367,-0.00938963890075684,C
1526529332.38645,0.113435519495882,-0.070952641448492,1.78879502573841,-0.255958646535873,-0.0282753258943558,-0.00747805833816528,C
1526529332.39665,0.11088602595698,-0.0723025253293698,1.79247732085161,-0.255648672580719,-0.0463453829288483,-0.00933408737182617,C
1526529332.40672,0.108359191903998,-0.0741139515823192,1.79557115939525,-0.260041475296021,-0.0733594745397568,-0.0155682563781738,C
1526529332.41671,0.106131908509988,-0.0769365348326559,1.7975055488656,-0.264936327934265,-0.0893270894885063,-0.0155575275421143,C
1526529332.42973,0.104438166947182,-0.0808765346081732,1.79856388872306,-0.263224601745605,-0.11719586700201,-0.00424486398696899,C
1526529332.43682,0.10295186631636,-0.0858357050838066,1.79827145835016,-0.25339263677597,-0.143698483705521,0.00144869089126587,C
1526529332.44687,0.101144295179315,-0.0915366858804222,1.7968278518256,-0.246621504426003,-0.175164401531219,0.00396788120269775,C
1526529332.45717,0.0984663920622123,-0.0973383816016321,1.79365085977104,-0.240770995616913,-0.200440973043442,0.00663411617279053,C
1526529332.46719,0.09432216016548,-0.102774030064673,1.78859748335341,-0.219326198101044,-0.202141553163528,0.00523930788040161,C
1526529332.47708,0.0882928895920626,-0.107794326189733,1.78149595359066,-0.20283967256546,-0.184963017702103,-0.0101050138473511,C
1526529332.48721,0.0807124302873069,-0.112380788140767,1.77316092137317,-0.194709673523903,-0.162345796823502,-0.0292277336120605,C
1526529332.49724,0.0724898355338888,-0.116641336852385,1.7637163003741,-0.181400716304779,-0.136488109827042,-0.0489396452903748,C
1526529332.50728,0.0645734254782126,-0.120825004297166,1.7538492904065,-0.160371541976929,-0.118288189172745,-0.0690831542015076,C
1526529332.51728,0.0577618385408754,-0.125179487499025,1.74355926946519,-0.142833977937698,-0.103124305605888,-0.0800064206123352,C
1526529332.52816,0.0524366226303006,-0.130000144452625,1.73318119883095,-0.120604321360588,-0.095668226480484,-0.0849362015724182,C
1526529332.53753,0.047790012334042,-0.13531911321555,1.72233945561437,-0.0924095213413239,-0.0870091766119003,-0.0905045866966248,C
1526529332.54747,0.0431350947365267,-0.140481738876762,1.71116773096276,-0.0809201300144196,-0.0672509521245956,-0.078262984752655,C
1526529332.56005,0.0383008829158085,-0.144721549572304,1.69968587552372,-0.0782354176044464,-0.0527404546737671,-0.0610616207122803,C
1526529332.56771,0.0329234638612889,-0.147902086603592,1.68807812046902,-0.0720173344016075,-0.0424135029315948,-0.0585280060768127,C
1526529332.57769,0.0271618527547754,-0.150308665328055,1.67632119299145,-0.0651823431253433,-0.0483486652374268,-0.0475600361824036,C
1526529332.5878,0.0210771164585003,-0.152269671688221,1.66448077158242,-0.0492740571498871,-0.0589390099048615,-0.0321770310401917,C
1526529332.59816,0.0150503752917656,-0.154120966674793,1.65251010006502,-0.0447786301374435,-0.0627522766590118,-0.0233950018882751,C
1526529332.60789,0.00937319120249559,-0.156209874410082,1.64066535801131,-0.0476805493235588,-0.0682493150234222,-0.0256329774856567,C
1526529332.61794,0.00381447155815962,-0.158647898280258,1.62870704148541,-0.0366339907050133,-0.0803159922361374,-0.0319146513938904,C
1526529332.62879,-0.00157771848299571,-0.161158882272327,1.61646105172095,-0.0251150876283646,-0.0944374054670334,-0.0325679779052734,C
1526529332.63812,-0.00690385033031327,-0.16359847360465,1.60372416220027,-0.00669242441654205,-0.114545091986656,-0.0453595519065857,C
1526529332.64813,-0.0120478951349895,-0.165713819316213,1.59045387919981,0.0119130685925484,-0.130364745855331,-0.0491724014282227,C
1526529332.66371,-0.0173634163214576,-0.167214198069501,1.57654410548786,0.0417785570025444,-0.135887950658798,-0.0443100929260254,C
1526529332.66851,-0.0231072409184789,-0.167987291426493,1.56209040601601,0.0674881562590599,-0.123283520340919,-0.0376719236373901,C
1526529332.67853,-0.029164160871123,-0.168170154712551,1.54752287256252,0.10110579431057,-0.107731997966766,-0.0317397713661194,C
1526529332.68855,-0.0353039566555029,-0.168006791239565,1.53319318244571,0.135538130998611,-0.0889857262372971,-0.0343794822692871,C
1526529332.69945,-0.0410810418381935,-0.167621396562736,1.5195891852689,0.165524333715439,-0.0797556489706039,-0.0324269533157349,C
1526529332.70854,-0.0461320001048923,-0.166965219472701,1.50679430816015,0.196719393134117,-0.0743631422519684,-0.0249360799789429,C
1526529332.71856,-0.0506057678599849,-0.166198377389319,1.49484567788309,0.228994756937027,-0.0741409808397293,-0.0274027585983276,C
1526529332.72995,-0.0548445088883545,-0.16536220605084,1.48328921097688,0.251716256141663,-0.0704171061515808,-0.0339549779891968,C
1526529332.73861,-0.0587745028330035,-0.164040147812142,1.47237465763862,0.264525502920151,-0.0607511103153229,-0.0386126637458801,C
1526529332.74885,-0.062402958252368,-0.161878603646305,1.46176367768851,0.292992383241653,-0.0585877001285553,-0.0425840020179749,C
1526529332.76193,-0.0658208429627361,-0.158807403423745,1.45158642223686,0.313846945762634,-0.0457750111818314,-0.0593243837356567,C
1526529332.76907,-0.0682147376434446,-0.154768980587318,1.44143445389013,0.314218968153,-0.0293196886777878,-0.0657809972763062,C
1526529332.77893,-0.0694365303761883,-0.15025787801481,1.43176157838976,0.330805957317352,-0.00711497664451599,-0.063532292842865,C
1526529332.78912,-0.0702340626899747,-0.146198591908193,1.42256265443512,0.33917248249054,0.0219241976737976,-0.0590829849243164,C
1526529332.79912,-0.0710848612988478,-0.143073747271739,1.41459828660328,0.315095961093903,0.0600353479385376,-0.0720598697662354,C
1526529332.8093,-0.0713115916866598,-0.140751661646555,1.40769729729213,0.281392425298691,0.077089324593544,-0.110612332820892,C
1526529332.81928,-0.0700996502137521,-0.138488270856793,1.40213813314606,0.276799559593201,0.0606539249420166,-0.151823997497559,C
1526529332.83043,-0.0669886448502391,-0.135005603361755,1.39754805105087,0.265853315591812,0.0469532012939453,-0.162888467311859,C
1526529332.83943,-0.0616524415864374,-0.129635025553041,1.39423951689593,0.225509792566299,0.0551760047674179,-0.17212575674057,C
1526529332.84955,-0.0543899693651912,-0.122740774042389,1.39192080552686,0.186980247497559,0.0592078045010567,-0.170185506343842,C
1526529332.86537,-0.0462204328248282,-0.115018151328188,1.39082071308807,0.163131937384605,0.0540890395641327,-0.133584439754486,C
1526529332.86972,-0.0379829333674392,-0.10735206401789,1.39014445457496,0.12479130923748,0.0327923744916916,-0.0518845319747925,C
0,0,0,0,0,0,0,0,0
1526529333.715,-0.00405510483081215,-0.00259563445709803,1.30388897157623,0.0327263437211514,-0.0410020053386688,-4.20808792114258e-05,C
1526529333.72634,-0.00390447784086607,-0.00171399078759253,1.30281811834616,0.0353680849075317,-0.0385029315948486,0.0329803824424744,C
1526529333.73514,-0.00496598454054788,-0.000830590948494057,1.30199964183669,0.0536720156669617,-0.0561284422874451,0.0161463618278503,C
1526529333.74657,-0.00722578746625599,-0.000538626030034312,1.30182508407208,0.0532309710979462,-0.0745742693543434,-0.00254392623901367,C
1526529333.75527,-0.00931327737262922,-0.000837119001205471,1.30159212312865,0.0457969047129154,-0.085248738527298,-0.0119761228561401,C
1526529333.76541,-0.0105706326065964,-0.00137851350150514,1.30119379457346,0.0581778474152088,-0.0982718244194984,-0.0348926186561584,C
1526529333.77531,-0.0108734723446397,-0.00186598390233247,1.30018598641011,0.0689939707517624,-0.100178360939026,-0.0439298748970032,C
1526529333.78539,-0.0113539873924515,-0.00202487972554025,1.29916599743043,0.0879528373479843,-0.090495340526104,-0.0673577785491943,C
1526529333.79735,-0.0121872036009346,-0.00118201975973567,1.29818710849242,0.109415896236897,-0.0841745734214783,-0.0704942941665649,C
1526529333.80552,-0.0132854622757861,0.00112560502286939,1.29796824430303,0.14194718003273,-0.0856358706951141,-0.0668613314628601,C
1526529333.81556,-0.0152973516648598,0.00463148247450693,1.29858921443485,0.178626671433449,-0.0979228541254997,-0.0717067122459412,C
1526529333.8258,-0.0185085910339515,0.00823084389973716,1.30055095800725,0.192533403635025,-0.0961088463664055,-0.0893164873123169,C
1526529333.83564,-0.0212535853849503,0.0112489455534043,1.30311388301514,0.174738794565201,-0.0760010480880737,-0.0995628237724304,C
1526529333.84649,-0.0221313504829919,0.0133482970422564,1.30625690089631,0.168062627315521,-0.0800816640257835,-0.110746562480927,C
1526529333.85575,-0.0213485910874844,0.0144157126523333,1.30928671862016,0.185514062643051,-0.0856824442744255,-0.117351412773132,C
1526529333.86598,-0.0196699821944667,0.0149130849282782,1.31249430828806,0.215040057897568,-0.0842695981264114,-0.102935254573822,C
1526529333.87593,-0.018097917256961,0.0156491781780198,1.3157303508557,0.227964103221893,-0.058783832937479,-0.0908013582229614,C
1526529333.886,-0.0168059106720638,0.0171385959139773,1.3195228022019,0.229204997420311,-0.0185678098350763,-0.0947704911231995,C
1526529333.89842,-0.0155056551260211,0.0195358854590431,1.32379123584591,0.235427007079124,-0.0021938718855381,-0.104589581489563,C
1526529333.9063,-0.0141675868321749,0.0228758487475469,1.32908752443494,0.251239210367203,-0.00131132826209068,-0.101115763187408,C
1526529333.91633,-0.0130004717113771,0.0270126788616349,1.33509087043022,0.246012330055237,0.0207075141370296,-0.0803138613700867,C
1526529333.92749,-0.0118376867383512,0.0317638564036048,1.34209238077592,0.226904064416885,0.0427753627300262,-0.0484413504600525,C
1526529333.93633,-0.010439454227503,0.0365012875788367,1.34947972579411,0.216486990451813,0.0568026304244995,-0.0289188623428345,C
1526529333.94658,-0.00865928626488332,0.0405348142391977,1.35734896977711,0.197372764348984,0.0763055756688118,-0.0238234400749207,C
1526529333.95647,-0.00620343586631542,0.0435819690246505,1.36546988650988,0.182100832462311,0.0914655104279518,-0.0216445326805115,C
1526529333.96655,-0.00308948076589609,0.0459904719551502,1.37393678020222,0.166309475898743,0.106170184910297,-0.0142000317573547,C
1526529333.97666,0.000343698620862923,0.0482404604852513,1.38241637798393,0.152214080095291,0.125431224703789,-0.00802993774414062,C
1526529333.9866,0.00368816099888359,0.0506294219145419,1.39094753582334,0.138040214776993,0.147897839546204,-0.00702559947967529,C
1526529333.99797,0.00680429673047461,0.0533043547538263,1.39954383262752,0.126872420310974,0.168254092335701,0.00194388628005981,C
1526529334.00664,0.00962377383320444,0.0564782965219203,1.40855913960779,0.110737793147564,0.182348549365997,0.0257181525230408,C
1526529334.01685,0.0118135072101299,0.0603586437639179,1.41837775588033,0.0912356227636337,0.208103373646736,0.0531476140022278,C
1526529334.02908,0.0131049836044785,0.0646547150044629,1.42900943061498,0.0676417723298073,0.229969173669815,0.0677710175514221,C
1526529334.03713,0.0133763654915706,0.068946691494291,1.44029588089149,0.0359874814748764,0.244993761181831,0.0714787244796753,C
1526529334.0471,0.012803532222757,0.0730875935350482,1.451512674463,0.0131251644343138,0.260034263134003,0.0680795907974243,C
1526529334.05729,0.0115187362157013,0.077056090815706,1.46241145671959,-0.000391159206628799,0.266478776931763,0.0596493482589722,C
1526529334.06745,0.00947882985458985,0.0810153376169845,1.47264019629683,-0.00805904343724251,0.27361473441124,0.0561842322349548,C
1526529334.07744,0.00698792240694404,0.0850968809808934,1.48237358984155,-0.00355986878275871,0.28705108165741,0.0577581524848938,C
1526529334.08753,0.00471590840341099,0.0888972373909371,1.49190225946636,0.00274902209639549,0.29373624920845,0.0531992316246033,C
1526529334.09756,0.00344402004957583,0.0920488774283909,1.50176922953748,-0.00262071564793587,0.297714233398438,0.0532400608062744,C
1526529334.10751,0.0033627303278447,0.0945494094690304,1.51218710912891,-0.000891037285327911,0.296022981405258,0.0717451572418213,C
1526529334.11764,0.00422624759564119,0.0966014853405655,1.52345317681345,-0.00568663328886032,0.288696795701981,0.0993780493736267,C
1526529334.12848,0.00557605470658034,0.0981922967297812,1.53557593091619,-0.0219981409609318,0.275646895170212,0.12231856584549,C
1526529334.13784,0.00710055094901811,0.0991730629997439,1.54843243540473,-0.0388649143278599,0.261165738105774,0.1441850066185,C
1526529334.1478,0.00877241241222266,0.099409779398572,1.56146023988849,-0.0593423917889595,0.246508702635765,0.154768407344818,C
1526529334.15888,0.010459814110272,0.0989818995082692,1.57438891646257,-0.0859852060675621,0.232075363397598,0.159463882446289,C
1526529334.16795,0.0124552762960741,0.0982809814728473,1.58678002932299,-0.103367745876312,0.216378450393677,0.17052698135376,C
1526529334.17839,0.0149382008916249,0.0972814055469881,1.59849071656154,-0.113560862839222,0.20802891254425,0.1660435795784,C
1526529334.18793,0.0177024988319924,0.0956602033844631,1.60983939121874,-0.135738924145699,0.197794035077095,0.153688371181488,C
1526529334.19807,0.0203816654643392,0.093356382265506,1.62121604699495,-0.155163943767548,0.185948491096497,0.14454710483551,C
1526529334.20846,0.0229914777927646,0.0905193305475089,1.63261260460962,-0.168113216757774,0.166659191250801,0.134527802467346,C
1526529334.21832,0.0256000468079338,0.0872853466950065,1.64375107047589,-0.177294224500656,0.143525272607803,0.118562161922455,C
1526529334.22905,0.0283253768723443,0.0836885838701108,1.65428015130802,-0.188348188996315,0.134967267513275,0.100149750709534,C
1526529334.23837,0.0315436434005566,0.0796709393019485,1.6639762568619,-0.194951549172401,0.131848037242889,0.0899291634559631,C
1526529334.24841,0.035171096004521,0.075148887733347,1.67278039622011,-0.191116228699684,0.137715503573418,0.0810790657997131,C
1526529334.25904,0.0388274221457134,0.0701400574087989,1.68059417850646,-0.182795703411102,0.152281656861305,0.0728541016578674,C
1526529334.26865,0.041989687430103,0.0648325362976612,1.6876659187935,-0.169193223118782,0.169233530759811,0.0663246512413025,C
1526529334.27871,0.0444287464011675,0.0596720413575406,1.69402201423934,-0.166603744029999,0.187184855341911,0.0565457940101624,C
1526529334.28892,0.0464084202070259,0.0549573138813193,1.70011716156478,-0.166759341955185,0.184827715158463,0.0471891164779663,C
1526529334.29874,0.0480059740795667,0.0504959947559907,1.70617760106404,-0.155241429805756,0.170317068696022,0.02134770154953,C
1526529334.30901,0.049491686864354,0.0460384460682026,1.71268212707376,-0.145686760544777,0.159211874008179,0.00502598285675049,C
1526529334.31885,0.0507509645501248,0.041689448336424,1.71970116791473,-0.145686313509941,0.14508618414402,0.00954800844192505,C
1526529334.33048,0.0520839799528734,0.0378163169347012,1.72740443088714,-0.169348031282425,0.132106617093086,0.0283862948417664,C
1526529334.33915,0.0533699009501492,0.0345741838170453,1.7355088811867,-0.191648855805397,0.105627477169037,0.0431910157203674,C
1526529334.34903,0.0544354791230396,0.0319041990069081,1.74361603180122,-0.207762241363525,0.0686724707484245,0.0558412671089172,C
1526529334.35916,0.0554194847887468,0.02924916003242,1.75084810806457,-0.21239560842514,0.031198114156723,0.0630093812942505,C
1526529334.36923,0.0563652380253131,0.0258432799996741,1.75690456799417,-0.218425944447517,0.00374567694962025,0.0579843521118164,C
1526529334.38034,0.0576752326701114,0.0213260698894233,1.76147549141728,-0.226636499166489,-0.00635499134659767,0.0548727512359619,C
1526529334.38926,0.0593772858197914,0.0158095269102339,1.76502182281715,-0.224374026060104,-0.00700302049517632,0.0489703416824341,C
1526529334.3994,0.0614949815888008,0.00935529174693295,1.76769526410188,-0.224707305431366,-0.00594941154122353,0.0332069396972656,C
1526529334.40935,0.0637292490792314,0.00213568796566272,1.77018764138755,-0.225246027112007,-0.0263982471078634,0.014233410358429,C
1526529334.41953,0.0656126027703305,-0.00526305148722119,1.7726496742806,-0.23151920735836,-0.0457140766084194,0.000977575778961182,C
1526529334.4311,0.0671866719119061,-0.0119965470514383,1.77529541510863,-0.230339288711548,-0.0578946955502033,0.00720858573913574,C
1526529334.43944,0.0683127345763954,-0.0176089713756918,1.77780110184084,-0.225567132234573,-0.0691675096750259,0.0109099149703979,C
1526529334.44963,0.0690556988297531,-0.0224245657725254,1.7800307008945,-0.218687444925308,-0.0836562067270279,0.0117087960243225,C
1526529334.46448,0.0693505447729921,-0.0270771927398434,1.78139622277768,-0.207315802574158,-0.0993089899420738,0.0209424495697021,C
1526529334.47045,0.0691466484725431,-0.0323245542411228,1.78156518304215,-0.198129534721375,-0.106003612279892,0.0256533622741699,C
1526529334.48042,0.0687752795634415,-0.0388354778493898,1.78017427167335,-0.189350992441177,-0.114921301603317,0.00965499877929688,C
1526529334.4904,0.0685264325561443,-0.0466327913121963,1.77796474897992,-0.184288859367371,-0.132751762866974,-0.00773489475250244,C
1526529334.50118,0.0680876021548783,-0.0548050237517643,1.77530778600454,-0.175949797034264,-0.142057865858078,-0.0142523646354675,C
1526529334.50996,0.0672597530471445,-0.0622512243372551,1.77251585055466,-0.175309434533119,-0.150513634085655,-0.0203683972358704,C
1526529334.52004,0.0657500743749562,-0.0685149375262305,1.76926951267948,-0.16556990146637,-0.169352456927299,-0.0283060669898987,C
1526529334.53034,0.0632983351060974,-0.0735798127459039,1.76546056549309,-0.161626145243645,-0.18073695898056,-0.0355414748191833,C
1526529334.5401,0.0600568045888456,-0.0775677374703958,1.76062295455833,-0.17585277557373,-0.171575665473938,-0.0357190370559692,C
1526529334.55035,0.0560935678698749,-0.0806211503003862,1.7548731286637,-0.176563799381256,-0.163801044225693,-0.0269415378570557,C
1526529334.56077,0.0515634326401181,-0.0832745189576514,1.74819118053541,-0.167954370379448,-0.159670621156693,-0.0216512084007263,C
1526529334.57109,0.0469988588852039,-0.0862238023442357,1.74118869397998,-0.151436522603035,-0.176555842161179,-0.0121092796325684,C
1526529334.58114,0.0425781380577491,-0.0901885802210949,1.73397484489854,-0.12733793258667,-0.203301832079887,-0.0158315896987915,C
1526529334.59128,0.0386459175343665,-0.0953832436117966,1.72644762334812,-0.115197107195854,-0.219857200980186,-0.0247290134429932,C
1526529334.60189,0.0351795780283148,-0.101521354213139,1.71811750674582,-0.0911740660667419,-0.239225476980209,-0.0374727249145508,C
1526529334.61221,0.0321421405911355,-0.107957791575445,1.70885557796387,-0.0842566192150116,-0.238439738750458,-0.050937294960022,C
1526529334.62188,0.0293170839097757,-0.114088690026156,1.69876000131467,-0.0821465998888016,-0.228144943714142,-0.0651103854179382,C
1526529334.6334,0.026405521844716,-0.119622219204029,1.6879959135082,-0.0689383670687675,-0.214918196201324,-0.0780191421508789,C
1526529334.64236,0.0235070802936126,-0.124273446527795,1.67675534709271,-0.0455251634120941,-0.22617244720459,-0.0784977674484253,C
1526529334.65286,0.020377583060681,-0.127857078553764,1.66528577490573,-0.0170817822217941,-0.230322733521461,-0.0698316693305969,C
1526529334.66726,0.0172774438763816,-0.130432331556867,1.65373997475793,-0.0200442522764206,-0.206188917160034,-0.0535496473312378,C
1526529334.67167,0.0144531255338392,-0.132582683637838,1.6424953291402,-0.0292946435511112,-0.187614515423775,-0.0477294325828552,C
1526529334.68247,0.0116801883463869,-0.134820208622899,1.63150597236936,-0.0212327353656292,-0.188123092055321,-0.0480833649635315,C
1526529334.70262,0.00902851638704266,-0.137140375261263,1.62035109345878,-0.0286732316017151,-0.190177693963051,-0.0519717335700989,C
1526529334.70352,0.00625633360832234,-0.139432124033579,1.60832613630455,-0.0282140001654625,-0.196185976266861,-0.0665031671524048,C
1526529334.7145,0.00268772684476875,-0.141345488686844,1.59516050550302,-0.0160733908414841,-0.200537174940109,-0.0775888562202454,C
1526529334.72181,-0.00166807899724157,-0.142278176619696,1.58097614397447,0.00102560967206955,-0.198103576898575,-0.0702722072601318,C
1526529334.73466,-0.00702429312069915,-0.141854080282745,1.56584988815706,0.0258135348558426,-0.176626622676849,-0.0693196654319763,C
1526529334.74238,-0.012649542328347,-0.140181244560801,1.55023076259084,0.0368171036243439,-0.141004323959351,-0.072587788105011,C
1526529334.7521,-0.0180064521168031,-0.138166423027948,1.53432529088597,0.0572778433561325,-0.108170971274376,-0.0860309600830078,C
1526529334.76468,-0.0228862863811863,-0.136342896235832,1.51858409561896,0.0826541930437088,-0.0818742364645004,-0.0819283127784729,C
1526529334.77245,-0.0269065807927729,-0.134664339448564,1.50311525290112,0.100802198052406,-0.0401567369699478,-0.0640395879745483,C
1526529334.78236,-0.0298410015039444,-0.133104702957167,1.48857312587455,0.120118290185928,-0.0119539648294449,-0.0485330820083618,C
1526529334.79339,-0.0324790257721413,-0.131769129422956,1.47486051547504,0.151271373033524,0.0207725018262863,-0.0418922305107117,C
1526529334.80212,-0.0351585883742144,-0.130403723414547,1.46185980044387,0.165269732475281,0.0609140396118164,-0.0462440252304077,C
1526529334.81301,-0.0379349872746712,-0.128560694236139,1.44915049659222,0.189025834202766,0.0778478384017944,-0.0546974539756775,C
1526529334.82242,-0.0409617631539761,-0.125929895727162,1.4369378660726,0.219794705510139,0.0988442003726959,-0.0589073300361633,C
1526529334.83374,-0.0437903445597656,-0.122614519840792,1.42551305200162,0.225027248263359,0.129645615816116,-0.0634068846702576,C
1526529334.84335,-0.0461664977846852,-0.11927811935089,1.41545406230646,0.228363052010536,0.160225093364716,-0.0839237570762634,C
1526529334.85287,-0.0474224780131243,-0.116497936971245,1.40669750088136,0.233637303113937,0.179312884807587,-0.0990973114967346,C
1526529334.86943,-0.0472082408393438,-0.114314291453755,1.3993468464481,0.253685027360916,0.187234565615654,-0.0992022752761841,C
1526529334.87239,-0.0458168456054896,-0.112242000974456,1.39318455940629,0.263270765542984,0.190682128071785,-0.088619589805603,C
1526529334.88244,-0.0436393384456045,-0.10957198818937,1.38865338317323,0.245527535676956,0.197669237852097,-0.0726636052131653,C
1526529334.90096,-0.0410824855352863,-0.105714371111793,1.38549470052074,0.235833689570427,0.196697995066643,-0.059248149394989,C
1526529334.90246,-0.0383761969314473,-0.100689898389466,1.38400319263868,0.23183698952198,0.175587937235832,-0.0566861033439636,C
1526529334.91514,-0.0355701443369113,-0.0949427824907488,1.38375723510162,0.212999507784843,0.154665738344193,-0.0592567920684814,C
1526529334.92249,-0.0324723557535814,-0.0890689993121713,1.38471845930234,0.192036420106888,0.123679950833321,-0.036319375038147,C
1526529334.93297,-0.0293716471357588,-0.0838292594599828,1.38618826586959,0.179990604519844,0.0713744759559631,0.00239062309265137,C
1526529334.9429,-0.0271884257166368,-0.0803388117674795,1.38756335873339,0.196530982851982,0.0633327811956406,-0.00129008293151855,C
0,0,0,0,0,0,0,0,0
1526529335.53611,0.0223091930127486,0.0487000641063181,1.31561638729204,0.0231750421226025,0.0771384537220001,0.0474854111671448,C
1526529335.54634,0.0239857421858457,0.0482755285835282,1.31764728399235,0.0210884492844343,0.0579155944287777,0.0681886076927185,C
1526529335.5564,0.0253131366582278,0.0480090259027211,1.3200745987596,0.0186335295438766,0.0375688299536705,0.0791398286819458,C
1526529335.56665,0.0258837812431214,0.0479655936388835,1.32220380944758,0.00840486027300358,0.0199625864624977,0.094630241394043,C
1526529335.5766,0.0253771268295797,0.0479040237469165,1.32432314486157,0.00704911723732948,0.0167119987308979,0.0931508541107178,C
1526529335.5865,0.023989911154838,0.0475264529010902,1.32580433188242,0.00284917280077934,0.00447877496480942,0.0865349173545837,C
1526529335.59695,0.0223166003235428,0.0466483245151608,1.32712000737869,0.00273394584655762,-0.00962774828076363,0.0793517827987671,C
1526529335.60665,0.0201691896261311,0.0452261930054051,1.32781508324895,0.00957692414522171,-0.00975137948989868,0.0685526132583618,C
1526529335.61678,0.0175935695936186,0.0435321105181977,1.3286271057687,0.00580047257244587,-0.00848358869552612,0.0542720556259155,C
1526529335.63184,0.0153508477334246,0.0419977608665601,1.32918382478208,-0.0043198624625802,-0.0071173682808876,0.0440596342086792,C
1526529335.63685,0.0139134830774907,0.0408194736483755,1.32987547933356,-0.00743171665817499,-0.0141234993934631,0.0229807496070862,C
1526529335.64735,0.0134925258528233,0.0398624507305776,1.33016373193072,-0.00978877022862434,-0.0290262773633003,0.00595051050186157,C
1526529335.65732,0.0136676747439234,0.0388998117336411,1.33050481202683,-0.0154421869665384,-0.028706431388855,0.00226289033889771,C
1526529335.66717,0.0139009306156234,0.0378810861562918,1.33049883932413,-0.0143024967983365,-0.0216677710413933,0.00155109167098999,C
1526529335.67709,0.0141144283342997,0.0366969983132432,1.33064871618943,-0.0061088502407074,-0.0286188572645187,-0.00127643346786499,C
1526529335.68721,0.0144555230013434,0.0352811874201472,1.33046269317809,0.0057566137984395,-0.0288435630500317,-0.00606739521026611,C
1526529335.69762,0.0150576838614266,0.0337290581829972,1.33046926991441,0.0203060638159513,-0.0372307077050209,-0.00365757942199707,C
1526529335.70737,0.0154583883737045,0.0320664330387158,1.33035038748413,0.0370861850678921,-0.0500466041266918,-0.00943785905838013,C
1526529335.71737,0.0157428468269289,0.030599829397404,1.33056860898097,0.0387237928807735,-0.0542132928967476,-0.00315552949905396,C
1526529335.72987,0.0157471484957756,0.0295974039335724,1.33084730401593,0.0446394272148609,-0.0613645613193512,0.00271868705749512,C
1526529335.73742,0.0156749028229554,0.0289752369147316,1.33160976362618,0.0468323193490505,-0.0650992542505264,0.00235658884048462,C
1526529335.74753,0.0155957527255425,0.0283588779620991,1.33245130160479,0.0470484793186188,-0.0805163830518723,-0.00232422351837158,C
1526529335.75771,0.0155360453294039,0.0275085520282433,1.33363832099108,0.0555306375026703,-0.0935734063386917,-0.00419163703918457,C
1526529335.76772,0.0155652386047929,0.0264410987702692,1.3346433243843,0.0583849251270294,-0.104116186499596,-0.00652843713760376,C
1526529335.7778,0.0158469168191118,0.0251935486719506,1.33578259500626,0.0609257444739342,-0.109040684998035,-0.0196995139122009,C
1526529335.7877,0.0162395251192963,0.0239652879995209,1.33678832588037,0.0673840194940567,-0.117073997855186,-0.0345224142074585,C
1526529335.79848,0.016330534729497,0.0232020536440129,1.33811973185092,0.0795608162879944,-0.120873510837555,-0.0434780716896057,C
1526529335.80802,0.0160876101613955,0.0232690758866795,1.3395114274692,0.0782320126891136,-0.112292110919952,-0.0480838418006897,C
1526529335.81795,0.0154608920396595,0.0239756942234192,1.34148116571767,0.0653241947293282,-0.10215575248003,-0.0636088252067566,C
1526529335.82955,0.0144965168283063,0.0248500563888856,1.34364526882451,0.0579266771674156,-0.0972685888409615,-0.080690324306488,C
1526529335.83808,0.0134804810310125,0.025720250804496,1.34621522426121,0.0516183823347092,-0.0884335860610008,-0.0840245485305786,C
1526529335.84817,0.0126999809926264,0.0266700821496506,1.34865897395496,0.0579378120601177,-0.0788170844316483,-0.0756926536560059,C
1526529335.85972,0.0120614978869671,0.0277566287064993,1.35130082154066,0.077405720949173,-0.0641353651881218,-0.0572511553764343,C
1526529335.86839,0.0117983825859921,0.0290819858436394,1.35393536441165,0.0989551693201065,-0.0458122491836548,-0.0292552709579468,C
1526529335.87848,0.0119025704594391,0.0304332632887271,1.35714632638268,0.10921223461628,-0.0301946029067039,-0.0102384686470032,C
1526529335.88841,0.0120555675055963,0.0315733905133193,1.36055698234344,0.11325591057539,-0.0130332931876183,-0.000555813312530518,C
1526529335.89858,0.0120369008241525,0.032558575626265,1.36449176932539,0.112969771027565,0.00533114373683929,0.0105517506599426,C
1526529335.90844,0.0118929362412889,0.03364805365243,1.36872653013137,0.108673766255379,0.0141409710049629,0.017170250415802,C
1526529335.91853,0.0116251769840411,0.0349069246279121,1.3736337979683,0.105951137840748,0.0157805755734444,0.0282233953475952,C
1526529335.92927,0.0108229305286419,0.0362561645839041,1.37866081151124,0.0925779491662979,0.0323419719934464,0.0338758826255798,C
1526529335.93875,0.00969500623056345,0.0374718687592774,1.38381327426061,0.0785840451717377,0.0339840948581696,0.0371996164321899,C
1526529335.94871,0.00846048702928542,0.0384145239379844,1.38859447904847,0.0785056948661804,0.0243059545755386,0.0384414792060852,C
1526529335.95882,0.00780911874515683,0.0388748332080096,1.39299422998968,0.0763948559761047,0.0159616023302078,0.0382459163665771,C
1526529335.96908,0.00785047730866011,0.0387396791204508,1.39672324209543,0.0785202383995056,0.0297883413732052,0.0355042219161987,C
1526529335.97884,0.00815542775151758,0.0380781586208054,1.40028581041083,0.0849597081542015,0.0529310181736946,0.0340166091918945,C
1526529335.98894,0.00839299094678763,0.0372584370041616,1.4040961738104,0.092870257794857,0.065905824303627,0.0309327244758606,C
1526529335.99915,0.00861776906537965,0.0368308331453481,1.408615850872,0.0889223590493202,0.0687744095921516,0.0285204648971558,C
1526529336.00909,0.00901017286814598,0.0369148076267877,1.41364368120834,0.0811144933104515,0.0669662356376648,0.0236616134643555,C
1526529336.01935,0.00944464383078721,0.0373211408962763,1.41898513533212,0.0707012340426445,0.0593614280223846,0.0239934921264648,C
1526529336.03021,0.0101692583442538,0.0378773996992842,1.42440699004592,0.0596319139003754,0.0510366782546043,0.0384613275527954,C
1526529336.03933,0.0111567003922307,0.0382878806132012,1.42970881536678,0.0566465072333813,0.0476474240422249,0.0511305332183838,C
1526529336.04936,0.0124432536376778,0.0382982658350225,1.43481717827124,0.0580160208046436,0.0530899316072464,0.0670450925827026,C
1526529336.05971,0.013722739013338,0.0377014356031226,1.43965379021227,0.0586751401424408,0.0732607394456863,0.0697976350784302,C
1526529336.06969,0.0147289913222402,0.0364962400651544,1.44423806219353,0.0571960248053074,0.0939527377486229,0.0587654113769531,C
1526529336.07965,0.015259422213969,0.0350233299251429,1.44869420452433,0.0651643425226212,0.0942965671420097,0.0480374097824097,C
1526529336.08956,0.0154725006638817,0.0338164218628537,1.45340545797331,0.0694978982210159,0.100536659359932,0.0397748947143555,C
1526529336.09977,0.0157809844605763,0.0330335343280288,1.45847720563228,0.0578824542462826,0.109535098075867,0.0253309011459351,C
1526529336.10976,0.0162699544990547,0.0324474182013531,1.46400147912428,0.0596060268580914,0.106843583285809,0.0119755864143372,C
1526529336.11988,0.0170712558092177,0.031870408095881,1.46970402503245,0.0574926882982254,0.112019434571266,0.0144832134246826,C
1526529336.13058,0.0181872763239458,0.0312197277594232,1.47576841893935,0.0511890426278114,0.113367974758148,0.0183597803115845,C
1526529336.13986,0.0193322724999247,0.0305137096957499,1.48191165149737,0.0555680692195892,0.100363716483116,0.0265083312988281,C
1526529336.15013,0.0205751186636523,0.0299295472774112,1.48809552449697,0.0495344251394272,0.0967280566692352,0.0419278144836426,C
1526529336.16091,0.0219649778928079,0.0292301665116278,1.49405592628899,0.0346410199999809,0.0977532267570496,0.043048083782196,C
1526529336.17031,0.0234988645366666,0.0281489290091591,1.50011940733424,0.0210224948823452,0.0986102968454361,0.0391379594802856,C
1526529336.18035,0.0252119343716531,0.026752432846539,1.5059469999274,0.00687373243272305,0.103729829192162,0.0336872339248657,C
1526529336.19024,0.0270009656795052,0.0252513042021982,1.51175793443029,0.00505438074469566,0.0959120690822601,0.0269351601600647,C
1526529336.20058,0.02844808458674,0.0239712436539785,1.51725584792217,0.000937094911932945,0.0925877243280411,0.0259041786193848,C
1526529336.21057,0.0297201055633144,0.0231984467269437,1.52284507666823,-0.00927621498703957,0.0973388254642487,0.0330418348312378,C
1526529336.2207,0.0306239943022415,0.0227585838160791,1.52813355310662,-0.00363373756408691,0.099645659327507,0.03123939037323,C
1526529336.23116,0.0316619523972654,0.0223093559051103,1.5334398268641,-0.00880637764930725,0.107604138553143,0.0318580269813538,C
1526529336.24071,0.0329057867419693,0.0216348115091402,1.53856749444617,-0.00954619795084,0.11307904869318,0.0320768356323242,C
1526529336.25096,0.0341860363672274,0.0207135509567052,1.54386038300153,-0.00630949437618256,0.115179233253002,0.03444904088974,C
1526529336.26383,0.0354159139599142,0.0199184108455449,1.54932055126536,-0.0128947719931602,0.116413675248623,0.0419907569885254,C
1526529336.2711,0.0364023066633767,0.0195190033242922,1.5550250709962,-0.00686157494783401,0.110383853316307,0.0506759881973267,C
1526529336.28124,0.0372359722443194,0.0193641049703289,1.5607820577107,-0.0102123282849789,0.105239361524582,0.0560652017593384,C
1526529336.29114,0.0381216847169449,0.0190605206931971,1.5666815606389,-0.0170636549592018,0.100129313766956,0.0586774349212646,C
1526529336.30122,0.039105769059034,0.0184892730934548,1.57257379637909,-0.0223044492304325,0.0912573859095573,0.06659996509552,C
1526529336.31139,0.0398407046685275,0.0177589570468422,1.57824295721088,-0.0255111381411552,0.0886656194925308,0.0744730234146118,C
1526529336.32137,0.0399962032468796,0.0171774237641055,1.58354769641592,-0.0269181132316589,0.0970105677843094,0.079909086227417,C
1526529336.33173,0.0390803242502599,0.0170631218407006,1.58853233903633,-0.0107596330344677,0.10444937646389,0.0854098796844482,C
1526529336.34174,0.0371877134568863,0.0172652286487159,1.59322599208364,-0.000796645879745483,0.12619686126709,0.0878894329071045,C
1526529336.35138,0.0351527056085729,0.0171416266575796,1.5981384728779,-0.0124199651181698,0.136113569140434,0.0627424120903015,C
1526529336.36377,0.0338602576419349,0.016298731359814,1.60378333310135,-0.0336661860346794,0.138505652546883,0.043651282787323,C
1526529336.37152,0.0334226396661392,0.0149484072828506,1.61009740387022,-0.0468709357082844,0.131250336766243,0.037156343460083,C
1526529336.38189,0.0337659401297449,0.0135028732001629,1.61686197601208,-0.0696146041154861,0.110105857253075,0.0338236689567566,C
1526529336.39352,0.034424344859855,0.0122065965854607,1.62363883187915,-0.0881259143352509,0.0888511911034584,0.0396620035171509,C
1526529336.40178,0.0349223387094973,0.0111042394481443,1.63007215468784,-0.101243041455746,0.0760148987174034,0.0499725341796875,C
1526529336.41179,0.0351745488597973,0.0100810007388082,1.63589987583139,-0.112283423542976,0.0697121769189835,0.0582142472267151,C
1526529336.42191,0.0353634863081374,0.00889955172296253,1.6411771809726,-0.108306989073753,0.0637395232915878,0.0590122938156128,C
1526529336.43197,0.0358937937782766,0.00733678934743479,1.6457709923546,-0.101803086698055,0.0617343038320541,0.0536502003669739,C
1526529336.44188,0.036736507353521,0.00533855855120875,1.64988840853049,-0.0909116789698601,0.0639780610799789,0.053250789642334,C
1526529336.45195,0.0376317473284361,0.00305077277908693,1.65374930095734,-0.0767614841461182,0.0705098733305931,0.0563399195671082,C
1526529336.46309,0.0384128726008169,0.000537643342647114,1.65772392432219,-0.0711487829685211,0.0798986032605171,0.0492498874664307,C
1526529336.47219,0.0391429048412184,-0.00223238924259452,1.66172383534921,-0.0561463609337807,0.0826217383146286,0.0372105836868286,C
1526529336.48219,0.039813549552599,-0.00520912658414953,1.6659153249726,-0.0499038062989712,0.0848787873983383,0.0242335796356201,C
1526529336.49236,0.0406464400801037,-0.00816693856381649,1.67045403873285,-0.0522610880434513,0.0806698203086853,0.0159252882003784,C
1526529336.50245,0.0415860687830901,-0.0110260635554018,1.67547849136599,-0.0498723350465298,0.0699372962117195,0.00316393375396729,C
1526529336.51259,0.0428498191294141,-0.0137392158820819,1.68068878030915,-0.0538495071232319,0.0548036955296993,-0.00931310653686523,C
1526529336.52247,0.0443321371771354,-0.0164020710902595,1.68591153735227,-0.0641175583004951,0.0404529124498367,-0.0192902088165283,C
1526529336.53266,0.0460538687000109,-0.0190015342887795,1.69080934789197,-0.0757533982396126,0.0358854755759239,-0.0218095779418945,C
1526529336.54259,0.0478193082741959,-0.0216230973079735,1.69528168141951,-0.0802911296486855,0.0431674048304558,-0.0257145166397095,C
1526529336.55277,0.049365965941191,-0.0243667846287369,1.69925674834425,-0.0802455693483353,0.0631295219063759,-0.0359691977500916,C
1526529336.56323,0.0507870331744192,-0.0269814554356853,1.7033572991,-0.0809286087751389,0.0788720399141312,-0.0351765751838684,C
1526529336.57283,0.0521967352652348,-0.0290987884570987,1.70780698172125,-0.0742609277367592,0.0842170864343643,-0.0270991921424866,C
1526529336.58288,0.0535483571289464,-0.0306367594452849,1.71286040007219,-0.0619357563555241,0.0791092440485954,-0.016825258731842,C
1526529336.5931,0.0550261868800016,-0.0317540811784306,1.71844796103119,-0.0625542998313904,0.0744219124317169,-0.00497728586196899,C
1526529336.60313,0.0566528276310274,-0.0329341888941434,1.7246080657722,-0.065533459186554,0.0624391958117485,-0.00820368528366089,C
1526529336.61304,0.058497312533344,-0.0345674687684529,1.73078241362497,-0.0705292373895645,0.0485082641243935,-0.0229979753494263,C
1526529336.62324,0.0608477042978438,-0.0364997211053032,1.73676738667262,-0.077951043844223,0.0277021080255508,-0.0332926511764526,C
1526529336.63377,0.0635734589018975,-0.0385934064715492,1.74200021341392,-0.0737830027937889,0.0135554559528828,-0.0392777919769287,C
1526529336.64378,0.0666435853992595,-0.0408393594949019,1.74660937630076,-0.0686444342136383,0.000401236116886139,-0.0318301916122437,C
1526529336.65435,0.0698375411316738,-0.0431366473457605,1.75065862310031,-0.0721725150942802,0.0027751699090004,-0.0152830481529236,C
1526529336.66728,0.0725871807164573,-0.04533543335739,1.75448657436165,-0.0701448321342468,0.0120684020221233,0.00348269939422607,C
1526529336.67396,0.0746682722775012,-0.0472835296257026,1.75814758385588,-0.0620032995939255,0.0089627280831337,0.0134327411651611,C
1526529336.68378,0.0763696099875519,-0.0490279886718058,1.76207940360688,-0.0703595727682114,0.00183393433690071,0.00841420888900757,C
1526529336.69778,0.0780142314336966,-0.0506390023431632,1.76586267504469,-0.0822449773550034,0.00706085935235023,-0.00348067283630371,C
1526529336.70426,0.0798011801082324,-0.0522424571398189,1.76938772490576,-0.0882594510912895,-0.00914313271641731,-0.0124316215515137,C
1526529336.71423,0.0817383114623664,-0.053865930779908,1.77235033110026,-0.0901195704936981,-0.0237953290343285,-0.0127955675125122,C
1526529336.72434,0.0835912054373716,-0.0554817270636575,1.77486512305366,-0.0938786864280701,-0.023882832378149,-0.0120445489883423,C
1526529336.7343,0.0855725304377818,-0.0569903350725616,1.77687353823358,-0.0908835306763649,-0.032377578318119,-0.00515508651733398,C
1526529336.74451,0.0876041000647258,-0.0585548067144585,1.77851287365956,-0.0804146081209183,-0.0248909816145897,-0.0060918927192688,C
1526529336.75453,0.0897604174990754,-0.0603996040696558,1.77966894001984,-0.0821827277541161,-0.0154562704265118,-0.0101912021636963,C
1526529336.76884,0.0919261145458684,-0.0623892495880665,1.78073506301,-0.0701947137713432,-0.0283674597740173,0.00148451328277588,C
1526529336.77402,0.0937589424590393,-0.0643332220182981,1.78131893237664,-0.05818010866642,-0.0264623165130615,0.0142080783843994,C
1526529336.78416,0.0952577784292778,-0.0660868818439984,1.78180878359917,-0.0677607133984566,-0.0180804133415222,0.0226811766624451,C
1526529336.79461,0.0961672681641606,-0.0675551910080131,1.78214350401816,-0.0724693462252617,-0.00375259667634964,0.0221154093742371,C
1526529336.80428,0.0965097269590595,-0.0687845471679053,1.78242191842734,-0.0648362785577774,-0.00664231181144714,0.020656406879425,C
1526529336.81508,0.0965024858091136,-0.069598089572,1.78249541762654,-0.0508466213941574,-0.0193405002355576,0.0285356640815735,C
1526529336.82679,0.0965910185502657,-0.070204631626404,1.78249453513857,-0.0422939583659172,-0.0248741507530212,0.0405089259147644,C
1526529336.83526,0.0968599925127131,-0.0713023026668056,1.78239920450778,-0.0319181382656097,-0.0378556698560715,0.0443882942199707,C
1526529336.84507,0.0973279581168506,-0.0731289231110653,1.78252566974096,-0.0284331366419792,-0.0466660559177399,0.0554118156433105,C
1526529336.85508,0.0977869525663521,-0.0754812806122175,1.78255703658384,-0.0288259014487267,-0.0411078706383705,0.0635247230529785,C
1526529336.86778,0.0977589755777498,-0.0780462845088224,1.78250208121556,-0.0284432396292686,-0.0383705124258995,0.0548935532569885,C
1526529336.87557,0.0972915753788655,-0.0804564686386078,1.7820479098642,-0.0336067005991936,-0.0342423766851425,0.0409703254699707,C
1526529336.88556,0.0965209993305011,-0.0826385855447245,1.78120634104924,-0.0243106782436371,-0.0368292331695557,0.0319565534591675,C
1526529336.89643,0.0954226901796276,-0.0844450504709732,1.78005381231579,-0.0213757455348969,-0.0367678180336952,0.0439505577087402,C
1526529336.9054,0.0939045342427337,-0.085717511113359,1.77911941694917,-0.0193255767226219,-0.0490677803754807,0.071146547794342,C
1526529336.91563,0.0918861549981228,-0.0866346301322323,1.77838915399055,-0.0209934040904045,-0.0582822784781456,0.0929372310638428,C
1526529336.92639,0.0896431361068097,-0.0877043468712707,1.77778291539588,-0.0315465331077576,-0.0592716410756111,0.096373438835144,C
1526529336.93568,0.0875671031028596,-0.0896266033710428,1.77685928478336,-0.0445626452565193,-0.0641770660877228,0.0837984085083008,C
1526529336.94648,0.0859169927700449,-0.0928057614803253,1.77562753476058,-0.050011083483696,-0.0764372423291206,0.073505163192749,C
1526529336.95571,0.0845573877969333,-0.0969914649133659,1.77382319105867,-0.0488576292991638,-0.0833049193024635,0.068586528301239,C
1526529336.96658,0.0832463572485082,-0.101621130850813,1.77137316240058,-0.05215784907341,-0.0785276144742966,0.0580455660820007,C
1526529336.97597,0.081428064995394,-0.106156766295597,1.76805093231336,-0.0438623428344727,-0.0809788554906845,0.0426650643348694,C
1526529336.98591,0.078619654166162,-0.110016020401924,1.76409296191119,-0.0409239158034325,-0.0754466876387596,0.0339130759239197,C
1526529336.99823,0.0749919908128915,-0.112951129682592,1.75983449258804,-0.0534176304936409,-0.0666448250412941,0.0176745057106018,C
1526529337.00595,0.0707885486876565,-0.115225338249024,1.75553099710362,-0.0559323728084564,-0.0732072293758392,-0.00808215141296387,C
1526529337.0161,0.0664316815903322,-0.117048064580687,1.75100378525573,-0.0594283267855644,-0.0725762695074081,-0.0196386575698853,C
1526529337.027,0.0624724254843512,-0.118505585697184,1.74639645927799,-0.0767186135053635,-0.06961390376091,-0.0211279392242432,C
1526529337.03548,0.0591300129547605,-0.119934326490168,1.74157416273503,-0.0818948820233345,-0.073641762137413,-0.0179678797721863,C
1526529337.04588,0.0562735826913435,-0.121685516531145,1.73653062206612,-0.0829580724239349,-0.0745562016963959,-0.0114232301712036,C
1526529337.05571,0.0540433443076405,-0.124002982838562,1.73104639373432,-0.0871105194091797,-0.0854926854372025,-0.00947904586791992,C
1526529337.06583,0.0525730306231739,-0.127038717160479,1.72502884119531,-0.0873883664608002,-0.10452626645565,-0.0127410888671875,C
1526529337.07584,0.0513270533422512,-0.130773650314464,1.71820239761804,-0.0736477747559547,-0.120757669210434,-0.0197634696960449,C
1526529337.08576,0.04981836126568,-0.134662373436729,1.7108217777794,-0.0731505900621414,-0.126366958022118,-0.0222160220146179,C
1526529337.09616,0.0477746370469421,-0.138054041830519,1.70313729495362,-0.0749509781599045,-0.12138058245182,-0.0242562294006348,C
1526529337.106,0.0452737801342132,-0.140531962773263,1.69526048374662,-0.0676697641611099,-0.124109163880348,-0.0341740846633911,C
1526529337.11617,0.0425348776814218,-0.141963419762817,1.68710568208276,-0.0550947338342667,-0.131614625453949,-0.0359348654747009,C
1526529337.12709,0.0395505898336668,-0.142396758494893,1.6786935956421,-0.0505841299891472,-0.126870855689049,-0.0296036601066589,C
1526529337.13634,0.0366921283253077,-0.142180356882453,1.67006183496065,-0.0564095191657543,-0.116860494017601,-0.0200962424278259,C
1526529337.1463,0.0338265606336983,-0.141869737160771,1.66113622974486,-0.0596491247415543,-0.104407012462616,-0.0147490501403809,C
1526529337.1564,0.0309246621912596,-0.142005334555773,1.65175625992938,-0.0658562704920769,-0.0816377997398376,-0.0140953660011292,C
1526529337.16652,0.0279650510151518,-0.143002788279432,1.64199099444936,-0.0600703693926334,-0.0779254287481308,-0.0226651430130005,C
1526529337.17666,0.0251244763998127,-0.144608939078747,1.6321935827109,-0.0508605688810349,-0.0837264358997345,-0.0265743136405945,C
1526529337.18664,0.0226833946657035,-0.146194670752583,1.62245918460449,-0.0420012436807156,-0.086470365524292,-0.0222601890563965,C
1526529337.19737,0.020257783282346,-0.147440035853364,1.61277809418923,-0.0316027626395226,-0.088053286075592,-0.0278992652893066,C
1526529337.20667,0.0175966930944997,-0.148149411701692,1.60303976964755,-0.0327838808298111,-0.0893042385578156,-0.0278775691986084,C
1526529337.21679,0.0148180986019393,-0.148176913936485,1.59298089995684,-0.023963026702404,-0.0978153347969055,-0.0155079960823059,C
1526529337.23165,0.0116521396958443,-0.147682886604474,1.58236597726189,-0.00854956358671188,-0.0900177359580994,-0.00787115097045898,C
1526529337.23765,0.00796632553308592,-0.146835819990814,1.57142994412594,-0.0120003819465637,-0.0768507272005081,-0.00618523359298706,C
1526529337.24755,0.00406343027452756,-0.145724767398422,1.56037217638227,-0.00444759428501129,-0.0769875049591064,-0.00374174118041992,C
1526529337.2576,1.08944094027006e-05,-0.14440892144966,1.54916966862736,0.0132491067051888,-0.0720233619213104,-0.00207847356796265,C
1526529337.26805,-0.00415702766012117,-0.143224338683929,1.5378750419188,0.0129798054695129,-0.0509535670280457,-0.0153602361679077,C
1526529337.27865,-0.00821057739064199,-0.142455672348465,1.52685374630331,0.0167485177516937,-0.0410069227218628,-0.0395370721817017,C
1526529337.28772,-0.0120722821580669,-0.141737047162852,1.51595009221634,0.0422853976488113,-0.0460328459739685,-0.0502620339393616,C
1526529337.29858,-0.0155766303276107,-0.140686235769407,1.50520914589248,0.063487283885479,-0.0389195084571838,-0.055319607257843,C
1526529337.30856,-0.0187553409657506,-0.139309497270877,1.4945078105055,0.0736872851848602,-0.0273023247718811,-0.0695400238037109,C
1526529337.31794,-0.0217847769574837,-0.137718709573934,1.48396997314162,0.0905007347464561,-0.0123753398656845,-0.0809321403503418,C
1526529337.33473,-0.0247258934320094,-0.135762557770351,1.47345686583017,0.126088887453079,-0.00299115478992462,-0.0744009017944336,C
1526529337.33797,-0.0275580593283431,-0.133189686100619,1.46345056429846,0.157010212540627,0.0142984837293625,-0.0599692463874817,C
1526529337.34917,-0.0304534434310164,-0.130067246536761,1.45405859856539,0.181467145681381,0.0443714410066605,-0.0531578660011292,C
1526529337.36054,-0.0332529777783765,-0.126511123977799,1.44574057699327,0.198981493711472,0.0660562962293625,-0.0474814772605896,C
1526529337.36818,-0.0357497343318415,-0.122633082231788,1.43826754155232,0.212872356176376,0.075870469212532,-0.0420041680335999,C
1526529337.37872,-0.0376440554757788,-0.118576226560893,1.43161644450976,0.219515040516853,0.0891141667962074,-0.0369161367416382,C
1526529337.38828,-0.0387209599958767,-0.114718384811242,1.42536275203142,0.219731226563454,0.108219832181931,-0.0358216166496277,C
1526529337.40055,-0.0390214465431312,-0.111087840229314,1.41978381327506,0.217695623636246,0.121974363923073,-0.0245144367218018,C
1526529337.40891,-0.0387192491558847,-0.107694498671521,1.41492507691282,0.204943418502808,0.144222542643547,-0.0140464901924133,C
1526529337.41852,-0.0381265171992658,-0.104582395010354,1.41110339341157,0.199346989393234,0.165276721119881,-0.0133129358291626,C
1526529337.43445,-0.037131731997186,-0.101607163093812,1.40813976610292,0.197347357869148,0.162498861551285,-0.0195156931877136,C
1526529337.43891,-0.0352642573556551,-0.0984531063484106,1.40630399725384,0.183340594172478,0.158984303474426,-0.0243826508522034,C
1526529337.44819,-0.0320432906781396,-0.094922501020829,1.40518790155261,0.164095714688301,0.153800904750824,-0.0284354686737061,C
1526529337.4603,-0.0275149323634826,-0.0910184707622553,1.40488048711855,0.145622670650482,0.137241303920746,-0.0307617783546448,C
1526529337.46887,-0.0224217807014328,-0.0868956659491735,1.40499053189501,0.137096658349037,0.113790430128574,-0.0258438587188721,C
1526529337.47984,-0.0170547066280971,-0.0827950184645032,1.4055366717654,0.129117041826248,0.0893271267414093,0.0121457576751709,C
1526529337.48949,-0.0117243682213456,-0.0793430915631386,1.40622214332929,0.117293290793896,0.0572452545166016,0.0865068435668945,C
0,0,0,0,0,0,0,0,0
1526529339.00382,0.0093211221898396,0.0128213267916099,1.33811874235424,-0.0143556222319603,0.00244499929249287,0.074840784072876,C
1526529339.01159,0.00860563978320509,0.0138861853145769,1.33901037102833,-0.00810116343200207,0.00740075297653675,0.0814552903175354,C
1526529339.01832,0.00727459471499929,0.0139810998651105,1.33968437408528,-0.0026961830444634,0.00566460378468037,0.0631997585296631,C
1526529339.031,0.00561142555400541,0.0131164804728474,1.340146280407,-0.00329157803207636,0.0113308262079954,0.0498555302619934,C
1526529339.0381,0.00425396405275798,0.011618269622863,1.3403576807043,-0.00309399608522654,0.0159515049308538,0.0323636531829834,C
1526529339.04814,0.00310559517011463,0.00985205420400167,1.34053712342981,0.00427981466054916,0.0109200105071068,0.0153732895851135,C
1526529339.06431,0.00173852158591749,0.00821495662810392,1.34085092942906,0.0164042375981808,0.000341328792273998,0.00719738006591797,C
1526529339.06824,7.32549713298127e-05,0.00696941232890422,1.34135590556026,0.025286853313446,-0.0116158491000533,0.00423288345336914,C
1526529339.07834,-0.00177838645804014,0.00594724777705285,1.34197905615014,0.0341422446072102,-0.0322913117706776,-0.0157663226127625,C
1526529339.08809,-0.00337107587548386,0.00499717839066896,1.34284769296979,0.0251148007810116,-0.0532151237130165,-0.0401793122291565,C
1526529339.09829,-0.00430057031506018,0.00414687731769169,1.34377294545351,0.0285467356443405,-0.0686070397496223,-0.0472742915153503,C
1526529339.10847,-0.00496658430830667,0.00337988973149264,1.34472347925439,0.0351179018616676,-0.081809937953949,-0.0562772154808044,C
1526529339.11841,-0.00542657591983966,0.00289944955139594,1.34572752450325,0.0346013307571411,-0.0954739674925804,-0.0570868253707886,C
1526529339.12927,-0.00553420862445664,0.00290077055641792,1.34674278333541,0.0424451678991318,-0.104811027646065,-0.0608410835266113,C
1526529339.1387,-0.00548310055091954,0.00345693794877017,1.34772467385766,0.0574392154812813,-0.115790508687496,-0.0580959320068359,C
1526529339.14857,-0.00575821083296948,0.00433899092034678,1.34868015184467,0.0793054848909378,-0.113611459732056,-0.0613815784454346,C
1526529339.15903,-0.00638235005975151,0.00536874171235714,1.3496991596003,0.0867349952459335,-0.100542537868023,-0.0726208686828613,C
1526529339.1689,-0.00722353519220357,0.00653043164408641,1.35102395874815,0.0972349122166634,-0.0970615372061729,-0.0888230800628662,C
1526529339.17914,-0.00802065822890577,0.0079102947288906,1.35257751323214,0.10799590498209,-0.0799956694245338,-0.102892458438873,C
1526529339.18894,-0.00829432360740499,0.00953911292487807,1.35439044160613,0.115227445960045,-0.0715614929795265,-0.114719212055206,C
1526529339.19915,-0.00807631413849882,0.0113609760655759,1.35662476871552,0.129199966788292,-0.0730051100254059,-0.110814929008484,C
1526529339.20905,-0.00792300671265633,0.0135603781278769,1.35937818061413,0.145525962114334,-0.0632833018898964,-0.0912030339241028,C
1526529339.21926,-0.00822271541792062,0.0162222129809946,1.36274755290295,0.151348978281021,-0.0564408525824547,-0.0756658911705017,C
1526529339.23127,-0.00872649091660959,0.0192591303674046,1.36667160350138,0.154491975903511,-0.048704706132412,-0.0713752508163452,C
1526529339.23928,-0.0088981264171856,0.0224794927077079,1.37099116445951,0.15576159954071,-0.0530534088611603,-0.0666527152061462,C
1526529339.24937,-0.00856426617346802,0.0257282185335925,1.37530937356739,0.165131762623787,-0.0448465198278427,-0.0645155906677246,C
1526529339.25994,-0.00795156078505009,0.0287602645068993,1.37951082331075,0.171674996614456,-0.0277927722781897,-0.0605800747871399,C
1526529339.26961,-0.00729287685002519,0.0316657749257432,1.38378938945865,0.172023043036461,-0.0162215977907181,-0.0553527474403381,C
1526529339.2811,-0.00678888787036857,0.0346829563113465,1.38825635034334,0.166834190487862,0.0157856233417988,-0.0567463040351868,C
1526529339.28981,-0.0063913232836415,0.0379968942854354,1.39307681277832,0.162941843271255,0.0329065769910812,-0.0571234822273254,C
1526529339.29958,-0.00593204179238542,0.0417839851699245,1.39860805523436,0.161703810095787,0.0375909209251404,-0.0534417629241943,C
1526529339.30961,-0.00497726366013543,0.0458259908018486,1.40453522511793,0.165067225694656,0.0436432063579559,-0.046899676322937,C
1526529339.31956,-0.00341548556574591,0.0497680494771303,1.41075252980051,0.165474846959114,0.0425758771598339,-0.0380330681800842,C
1526529339.33037,-0.00133216061052923,0.0534524112398428,1.41720484926354,0.15747344493866,0.0503904595971107,-0.0124766230583191,C
1526529339.33957,0.000908648260289102,0.0568573106210167,1.4238894357485,0.144829511642456,0.0716429650783539,0.00969028472900391,C
1526529339.34989,0.00308511680818409,0.0599117200462406,1.43069889135622,0.122454479336739,0.0866855755448341,0.0176100730895996,C
1526529339.36092,0.00540754957585316,0.0627731750421818,1.43740243267127,0.10840317606926,0.098529078066349,0.0241539478302002,C
1526529339.36983,0.00771775731834482,0.0654879548694241,1.44382428166224,0.0997512564063072,0.104259520769119,0.0269250273704529,C
1526529339.3801,0.0101225865851199,0.0678982262815129,1.44999705635068,0.0817283019423485,0.111898191273212,0.0286198258399963,C
1526529339.38995,0.0124955792386355,0.0699422958606172,1.45603478915718,0.0794084668159485,0.12028506398201,0.0344032049179077,C
1526529339.40009,0.0149003110517448,0.071801013518782,1.46210422725127,0.076309897005558,0.131370678544044,0.0506724119186401,C
1526529339.41017,0.0175198408326407,0.0736681649855141,1.46843347031701,0.070373423397541,0.147316753864288,0.0639678835868835,C
1526529339.42022,0.0202166093415393,0.0754427299027499,1.47490062356766,0.0687247216701508,0.160072714090347,0.0721468329429626,C
1526529339.43087,0.0226987810929501,0.0771068276947885,1.48159886770968,0.0635980293154716,0.173679620027542,0.0794589519500732,C
1526529339.44028,0.0252755973097367,0.0787297815075613,1.4884848084466,0.0524421073496342,0.193989664316177,0.0940568447113037,C
1526529339.45034,0.0278596811277104,0.0801177173736082,1.49562612334656,0.0445904657244682,0.19882170855999,0.0981202125549316,C
1526529339.46101,0.0306174666813618,0.0812327243313734,1.5030260601982,0.0330411307513714,0.197857886552811,0.106128752231598,C
1526529339.47062,0.033327255747984,0.0821169296437284,1.51065333690672,0.0240421816706657,0.203240483999252,0.11277574300766,C
1526529339.48063,0.0356519897573342,0.0828496621935991,1.51840439988304,0.0151217579841614,0.209967434406281,0.121180415153503,C
1526529339.49055,0.037614375214784,0.0834105851958656,1.52631504564868,0.00503623485565186,0.21605010330677,0.117720544338226,C
1526529339.50064,0.0394540975610363,0.0836806738942629,1.53417054838799,-0.00706400349736214,0.223048388957977,0.10650372505188,C
1526529339.51082,0.041040442329693,0.0835041498825221,1.54170515292916,-0.00655367225408554,0.23384353518486,0.0897769927978516,C
1526529339.52086,0.0423039047731283,0.083118304144162,1.54897348586965,-0.0127720981836319,0.242400676012039,0.0808912515640259,C
1526529339.53073,0.0432698715329338,0.0830318489805403,1.55620998050785,-0.0106824040412903,0.251179873943329,0.0852823257446289,C
1526529339.54091,0.0439966736641645,0.0835194789621601,1.56371677867405,0.00333576649427414,0.25140643119812,0.0941213369369507,C
1526529339.55098,0.0450042567698826,0.0842131059182846,1.57199457611374,-0.00494313985109329,0.252189159393311,0.0958648920059204,C
1526529339.56106,0.0466180089317786,0.0847537786151715,1.58120995520813,-0.0304883979260921,0.245541021227837,0.104641556739807,C
1526529339.57104,0.0484315333240215,0.0848600476320995,1.59125261828397,-0.045842744410038,0.228846967220306,0.117501437664032,C
1526529339.5812,0.0500380131125217,0.0845285971452259,1.60156251843094,-0.0761141628026962,0.217576175928116,0.129276216030121,C
1526529339.59194,0.0515289291419716,0.0839513849506027,1.61178579631507,-0.101098880171776,0.200323134660721,0.14247864484787,C
1526529339.60136,0.0528278970503755,0.0831012103335939,1.6214198936185,-0.107125483453274,0.17881552875042,0.149668872356415,C
1526529339.61136,0.0538814060354328,0.081783854946183,1.63037430327925,-0.110560066998005,0.168789893388748,0.149843275547028,C
1526529339.62151,0.0546615252534876,0.079947871881782,1.63862988242766,-0.111954890191555,0.174131527543068,0.159455418586731,C
1526529339.63143,0.0549721655478139,0.0780078050939746,1.64653617719652,-0.10439895093441,0.18330591917038,0.169997811317444,C
1526529339.64165,0.0547118403889702,0.0759331277045278,1.65439554713105,-0.0821758806705475,0.191506534814835,0.166875422000885,C
1526529339.6516,0.0541571770161646,0.0735813110846263,1.66249212325417,-0.0665116831660271,0.19929313659668,0.162137091159821,C
1526529339.66218,0.0536864258440255,0.0708073885601442,1.67112627682726,-0.0718214437365532,0.202599436044693,0.147988438606262,C
1526529339.67178,0.0532794782425497,0.0675653418105441,1.68045040021523,-0.0766007676720619,0.192101955413818,0.12649017572403,C
1526529339.68177,0.052714891700683,0.0640604951999356,1.69038948108496,-0.0825353860855103,0.16927182674408,0.111994981765747,C
1526529339.69213,0.0524335663193074,0.06055261605545,1.7007616627099,-0.108572632074356,0.147368639707565,0.10035651922226,C
1526529339.702,0.0526994958844231,0.0568676234017455,1.7112260300844,-0.126122042536736,0.133115664124489,0.0824005603790283,C
1526529339.71208,0.0536496030645943,0.0527281838605024,1.72107506554728,-0.124121233820915,0.109695330262184,0.0635793805122375,C
1526529339.72195,0.0554512632759955,0.0479383774614353,1.72991945272849,-0.117309853434563,0.100837498903275,0.0509655475616455,C
1526529339.73215,0.0578028214676842,0.0424597356551494,1.73765311803935,-0.100733086466789,0.0948151424527168,0.0344476699829102,C
1526529339.74215,0.0601426120484171,0.0366553488029547,1.74477659142857,-0.0828168243169785,0.0915635228157043,0.0272758603096008,C
1526529339.75246,0.0621804486791496,0.0311829631212282,1.75175480441271,-0.0580208078026772,0.0875591337680817,0.027367115020752,C
1526529339.76472,0.0635844762288342,0.0265758725228582,1.75898563381957,-0.0381133034825325,0.088538683950901,0.0223762989044189,C
1526529339.77256,0.064406615407031,0.0229483565149029,1.76681693026965,-0.0291278511285782,0.0796480029821396,0.0182019472122192,C
1526529339.7825,0.0652921380298071,0.0199584711252502,1.77524497366556,-0.0308089256286621,0.083769403398037,0.00920593738555908,C
1526529339.79909,0.0665286198427243,0.0169912187047245,1.78392607039696,-0.0361507311463356,0.0884930863976479,0.000832617282867432,C
1526529339.80262,0.0680463182318232,0.0137382872995331,1.79282972655984,-0.0294131636619568,0.0607654452323914,0.00641095638275146,C
1526529339.81306,0.0695537883156417,0.0102389679386934,1.80152530472778,-0.029287151992321,0.0445863232016563,0.0130477547645569,C
1526529339.82279,0.070610963244836,0.00676616822731488,1.80987189010212,-0.0370423719286919,0.0396640673279762,0.0201901197433472,C
1526529339.83283,0.0708566468012293,0.00355893249651659,1.81767696781839,-0.0444144606590271,0.0369451567530632,0.022371232509613,C
1526529339.84289,0.0703345971237147,0.000725845670976514,1.82518474342362,-0.0601142346858978,0.0505915656685829,0.0209950804710388,C
1526529339.85297,0.0696494914091641,-0.00189494289081441,1.83268588685965,-0.0809608548879623,0.068295493721962,0.0142207741737366,C
1526529339.86304,0.0692481875704005,-0.00456431803664839,1.84068057340291,-0.0966579392552376,0.0811900943517685,0.0149877071380615,C
1526529339.87298,0.0695487150488,-0.00725766330823335,1.84901167247488,-0.131182104349136,0.105764254927635,0.0249454975128174,C
1526529339.88299,0.070573823675887,-0.00948791781328896,1.85777490885347,-0.159959077835083,0.095233291387558,0.0469498038291931,C
1526529339.89618,0.0716908553026404,-0.0108756595310437,1.86623788329509,-0.157486408948898,0.0629618391394615,0.0750393271446228,C
1526529339.90319,0.0726234036307999,-0.0116906249385686,1.87407499105348,-0.15804959833622,0.0380990728735924,0.0985530018806458,C
1526529339.91327,0.0731449959055052,-0.0128648010174148,1.88098028198023,-0.169844955205917,0.0271135810762644,0.0936331152915955,C
1526529339.92353,0.0732682230617476,-0.0151689169969365,1.88717588028059,-0.188520178198814,-0.00355639681220055,0.0795385241508484,C
1526529339.93345,0.0731157558147906,-0.0187526124692515,1.89234339569739,-0.200631767511368,-0.0206893794238567,0.0565550923347473,C
1526529339.94355,0.0728092359238351,-0.0234820574750561,1.89675223565301,-0.214097529649734,-0.0436520166695118,0.0169575214385986,C
1526529339.95366,0.0724765051200056,-0.0290120330960905,1.9005440336302,-0.221949219703674,-0.0561686083674431,-0.0327083468437195,C
1526529339.96412,0.0726393173433942,-0.0347639916542022,1.9039338743096,-0.2295902967453,-0.0665410459041595,-0.0718129873275757,C
1526529339.97367,0.0736860828283517,-0.0402685672029442,1.90671946472002,-0.222073510289192,-0.0877125188708305,-0.090360164642334,C
1526529339.98373,0.0754875494195545,-0.045225608212543,1.90899581519441,-0.211859121918678,-0.100309684872627,-0.0868450999259949,C
1526529339.99731,0.0774506202549855,-0.0497093385202727,1.9105093696992,-0.217368543148041,-0.0940003916621208,-0.079852283000946,C
1526529340.00378,0.0793049246708205,-0.0540122600601008,1.91143690515645,-0.222065851092339,-0.0870365351438522,-0.0759777426719666,C
1526529340.01388,0.0808684017649026,-0.0582914547746817,1.91145515475033,-0.218384131789207,-0.100098043680191,-0.0793327689170837,C
1526529340.02394,0.0823098536761603,-0.0628180271720197,1.91020874969786,-0.200676560401917,-0.11050621420145,-0.0855977535247803,C
1526529340.03401,0.0834340289724546,-0.0676448572131742,1.9077018797055,-0.179246485233307,-0.129086196422577,-0.0900782942771912,C
1526529340.04412,0.084247830345215,-0.0726745898393876,1.90428775765669,-0.157549694180489,-0.136041417717934,-0.0892617106437683,C
1526529340.05427,0.0844686424342879,-0.0776602555202732,1.8999207721318,-0.140128910541534,-0.124594539403915,-0.0909351110458374,C
1526529340.06437,0.0841956103847205,-0.0823548387174768,1.89488791245545,-0.133524224162102,-0.110505789518356,-0.0855487585067749,C
1526529340.07414,0.0833088433121345,-0.0865679697981264,1.88923196152212,-0.119201511144638,-0.0943792015314102,-0.0794966816902161,C
1526529340.08433,0.0819914391134915,-0.0903307848613231,1.88320084936077,-0.114356778562069,-0.0714854598045349,-0.0778122544288635,C
1526529340.09465,0.0807620058640205,-0.0938043347047623,1.87682551733347,-0.0927554219961166,-0.0584953129291534,-0.0733160972595215,C
1526529340.10461,0.0799618435986174,-0.0973016242320381,1.8706750789288,-0.0627141147851944,-0.0560257285833359,-0.0587226748466492,C
1526529340.11465,0.0797584781599404,-0.101232695225451,1.86502641258873,-0.0384334549307823,-0.0713967904448509,-0.042142391204834,C
1526529340.12606,0.0796398607157418,-0.10561948696186,1.85992082967104,-0.0194962173700333,-0.0930178239941597,-0.0359011888504028,C
1526529340.1349,0.0792401938062265,-0.110100172302401,1.85466833251416,-0.0309789627790451,-0.105376526713371,-0.0364267826080322,C
1526529340.14558,0.078193991348427,-0.114103670433502,1.84887039575029,-0.0559540838003159,-0.116434969007969,-0.0516536235809326,C
1526529340.15489,0.0761375920857851,-0.117592874714966,1.84180299103386,-0.0547867268323898,-0.12293728441,-0.0728181004524231,C
1526529340.16501,0.0732221372000124,-0.120391095850801,1.8338753895022,-0.0588789656758308,-0.121778950095177,-0.0821344256401062,C
1526529340.1755,0.0701112458794214,-0.12243355408145,1.8256385111009,-0.0625866129994392,-0.113750830292702,-0.0779028534889221,C
1526529340.18492,0.0673083228780618,-0.123811606275491,1.81748866825392,-0.0573889687657356,-0.126104772090912,-0.0728452801704407,C
1526529340.19571,0.0649850812601002,-0.124640289831683,1.80901919363621,-0.0526252239942551,-0.139622390270233,-0.0599017143249512,C
1526529340.20509,0.0630127887376294,-0.125348834188771,1.80007855471804,-0.0679396241903305,-0.145086139440536,-0.0492598414421082,C
1526529340.21517,0.0615154117398296,-0.126162914004937,1.79065122235864,-0.0758500099182129,-0.170841917395592,-0.0352464914321899,C
1526529340.23009,0.0598299841019552,-0.127118369391136,1.78067902513654,-0.0576180554926395,-0.197882249951363,-0.0189844369888306,C
1526529340.2353,0.0573827626259131,-0.128085213136036,1.77003767379315,-0.0381283648312092,-0.207447201013565,-0.00649863481521606,C
1526529340.24557,0.0537258098387118,-0.129075609853732,1.75875136231785,-0.0133972465991974,-0.210352018475533,-0.0134736299514771,C
1526529340.25537,0.0489043107308059,-0.129950487423895,1.74673887479431,0.0107162520289421,-0.204612508416176,-0.0313313007354736,C
1526529340.26551,0.044055427591732,-0.130440188554755,1.73397345387241,0.0342748947441578,-0.192768961191177,-0.044171929359436,C
1526529340.27553,0.0399708840142258,-0.130728763999122,1.72081027267475,0.0557024218142033,-0.165757119655609,-0.0618158578872681,C
1526529340.28557,0.0368838165144944,-0.131001914373947,1.70767336413699,0.0675054788589478,-0.141323953866959,-0.0657011270523071,C
1526529340.29617,0.034434781720156,-0.131157793561246,1.69488859200787,0.0811631605029106,-0.11688132584095,-0.0510017871856689,C
1526529340.30587,0.0320379844295357,-0.131046861995955,1.6825467510797,0.0949206501245499,-0.0920215845108032,-0.0355274677276611,C
1526529340.31585,0.0291419008966389,-0.130625767858897,1.67067724503091,0.109995983541012,-0.0741785615682602,-0.0326533913612366,C
1526529340.32605,0.0262550442303565,-0.129645152354757,1.65921834181302,0.114257603883743,-0.0644934624433517,-0.0228033065795898,C
1526529340.336,0.0235134672683983,-0.128208271293,1.64800511202511,0.139630287885666,-0.0557137727737427,-0.0153945684432983,C
1526529340.34601,0.0208967477021437,-0.126523913171696,1.63703332945834,0.145287439227104,-0.042705774307251,-0.00657814741134644,C
1526529340.35612,0.0184686823399747,-0.124714388578598,1.62634380377697,0.144410789012909,-0.0224168598651886,-0.00348114967346191,C
1526529340.36624,0.0162292575499851,-0.122884757643947,1.61585465661115,0.149146527051926,-0.00689883530139923,-0.00846570730209351,C
1526529340.37615,0.0144425786631609,-0.120942323980164,1.6058192404499,0.161490455269814,0.00206348299980164,-0.00988072156906128,C
1526529340.3862,0.0132165067968576,-0.118953366456477,1.59627944355632,0.181533649563789,0.0264075323939323,-0.0197882652282715,C
1526529340.3974,0.0126207184632792,-0.117069998944169,1.58754113408534,0.19861713051796,0.050464078783989,-0.033932626247406,C
1526529340.40632,0.0124841111396305,-0.115102778801432,1.57941019048926,0.22041742503643,0.0678752139210701,-0.0334131717681885,C
1526529340.41643,0.0125053612761942,-0.11281182954301,1.57209676279739,0.236277461051941,0.08910271525383,-0.0300554037094116,C
1526529340.43057,0.0129008078870783,-0.109963154705457,1.5655872281459,0.230784043669701,0.105651386082172,-0.0415540337562561,C
1526529340.43658,0.0144481939696867,-0.10647771471041,1.5599941226113,0.215111061930656,0.112809062004089,-0.0623930692672729,C
1526529340.44682,0.0180157807677957,-0.102374614622503,1.55494336728779,0.200539603829384,0.118644565343857,-0.0722463726997375,C
1526529340.45662,0.0236388579313795,-0.0979224286540428,1.55068665499425,0.189916521310806,0.123837381601334,-0.0621979832649231,C
1526529340.46718,0.0303356254703231,-0.0935016467091974,1.54728461691954,0.188780412077904,0.124163828790188,-0.0234881043434143,C
1526529340.47701,0.0366888686675066,-0.0897353419185167,1.54494993815482,0.182049110531807,0.12718191742897,0.0496576428413391,C
0,0,0,0,0,0,0,0,0
1526529341.33395,0.0208793708229433,0.167443119354106,1.26576937517281,0.00358408689498901,0.0893454849720001,0.0609627366065979,C
1526529341.34223,0.0217081192894034,0.16768210007143,1.26751776636336,0.0230163931846619,0.0662809610366821,0.063057005405426,C
1526529341.35224,0.0216796665934112,0.167273887218247,1.26906748849111,0.048937126994133,0.0400453209877014,0.0715789794921875,C
1526529341.36246,0.020980239006662,0.166048187093853,1.2702421898729,0.0606849938631058,0.0218840837478638,0.0752454996109009,C
1526529341.37241,0.020136651120884,0.163895870836432,1.27108756066295,0.0724807530641556,-0.0100241601467133,0.0591059923171997,C
1526529341.38244,0.0197702240661863,0.160712466704336,1.27190593538594,0.0705126896500587,-0.0387241840362549,0.0371361374855042,C
1526529341.39351,0.0198857285014624,0.156350970492364,1.27275968473277,0.0800438225269318,-0.0504162460565567,0.00852549076080322,C
1526529341.40262,0.019755921527117,0.151297841083616,1.27397067246456,0.0925315991044044,-0.0614064037799835,-0.0120906829833984,C
1526529341.41346,0.0192687328845303,0.146498269907705,1.27583986469655,0.100583031773567,-0.0639708638191223,-0.0145431756973267,C
1526529341.42275,0.018171503659768,0.142552652969588,1.27842447746305,0.122867710888386,-0.0669292956590652,-0.030235767364502,C
1526529341.43285,0.0164635173725977,0.139751984853422,1.28165397010316,0.141885608434677,-0.0744933784008026,-0.0449796915054321,C
1526529341.44281,0.0146976034140632,0.137932181625957,1.28516052557456,0.160094618797302,-0.0778825879096985,-0.0626907348632812,C
1526529341.45274,0.0135103930506918,0.136630452740634,1.28857564699412,0.168058201670647,-0.0703524798154831,-0.081142246723175,C
1526529341.46393,0.0130401822927911,0.135630129754617,1.29192941084638,0.178776115179062,-0.0578852891921997,-0.0770482420921326,C
1526529341.47295,0.0127442478250118,0.134671206022105,1.29541872513364,0.200948759913445,-0.0476507842540741,-0.0673785209655762,C
1526529341.48305,0.0121921146528102,0.133705187441706,1.29948631616815,0.211641371250153,-0.0363400429487228,-0.0550202131271362,C
1526529341.49331,0.0117187939771934,0.132714864599273,1.30416119099267,0.235958382487297,-0.0369706451892853,-0.0388308167457581,C
1526529341.50325,0.0117571020201577,0.131317821024299,1.30956771903508,0.253816813230515,-0.0464884638786316,-0.0388609766960144,C
1526529341.51346,0.0126885031667573,0.129479041097736,1.3156447176824,0.258353114128113,-0.0446342676877975,-0.0248697400093079,C
1526529341.52328,0.0142388470760603,0.127517067755464,1.32220206872351,0.260245531797409,-0.0164286941289902,-0.00364291667938232,C
1526529341.53343,0.0160011422563814,0.125763786265343,1.3290234355363,0.257075130939484,0.0126548111438751,0.0128637552261353,C
1526529341.54344,0.0174978946017495,0.124480098437219,1.33617275073447,0.249423071742058,0.0250225216150284,0.0248246192932129,C
1526529341.55357,0.018681800162146,0.123436724792534,1.34330617462784,0.240158945322037,0.0420840755105019,0.0215296149253845,C
1526529341.56388,0.02023768645309,0.122144048259804,1.35030035820822,0.229441449046135,0.0700827538967133,0.0113276839256287,C
1526529341.57364,0.0226647386429227,0.120048554500344,1.35746222402067,0.212317824363708,0.0884646326303482,-0.00203591585159302,C
1526529341.58364,0.0261381866435208,0.11720916862077,1.36513526112475,0.216353684663773,0.101468570530415,0.00509756803512573,C
1526529341.59403,0.0305470661811002,0.113976451990511,1.37336599650314,0.224950671195984,0.11928404122591,0.0189570188522339,C
1526529341.60397,0.0356295114811519,0.110744406322913,1.38226204319327,0.216549396514893,0.137892439961433,0.0325188636779785,C
1526529341.61374,0.0408232156230259,0.107914282942553,1.39170424484896,0.207243546843529,0.15146715939045,0.0566169619560242,C
1526529341.62405,0.045617135963921,0.105614977733445,1.40150599130993,0.199846282601357,0.169841349124908,0.0706023573875427,C
1526529341.63411,0.049233485121225,0.103648529779335,1.41180564786713,0.175370007753372,0.186394572257996,0.0729563236236572,C
1526529341.64409,0.0515255558135824,0.102087066837491,1.42285872812324,0.156330719590187,0.192104548215866,0.074908971786499,C
1526529341.65407,0.0528807030888856,0.101012668531039,1.43450605219326,0.143229439854622,0.197703763842583,0.0715599656105042,C
1526529341.66411,0.0535990547518238,0.100405110851411,1.44655549583499,0.128733798861504,0.205628961324692,0.0677682161331177,C
1526529341.67407,0.0540286407169093,0.100185890869611,1.45896221230737,0.109445959329605,0.215954661369324,0.0768156051635742,C
1526529341.6843,0.0546645400904921,0.0998519779391373,1.47177739977786,0.0720539316534996,0.228210911154747,0.0793627500534058,C
1526529341.69436,0.0555742429072442,0.0988156146049916,1.48533479240036,0.0150531157851219,0.228400349617004,0.069802463054657,C
1526529341.70452,0.0566809946338249,0.0969784032943222,1.49952561193274,-0.0268281549215317,0.212182909250259,0.0720104575157166,C
1526529341.71444,0.0579047242760864,0.0948272078002538,1.51394018029083,-0.0537823773920536,0.191334322094917,0.0831326842308044,C
1526529341.72447,0.0593648730353199,0.0929268307305312,1.52802933051931,-0.0938487723469734,0.187550216913223,0.0963631868362427,C
1526529341.73484,0.0610852667271389,0.0912409889696107,1.5413626556179,-0.11929552257061,0.202183172106743,0.0987036228179932,C
1526529341.74464,0.0628770926149679,0.0894584505488249,1.55377072661829,-0.12838026881218,0.21198932826519,0.10522335767746,C
1526529341.75476,0.0646161464668824,0.0871754649782755,1.56529720590374,-0.118143707513809,0.230360373854637,0.112577140331268,C
1526529341.76485,0.0663034555389276,0.0839520850032918,1.57615647350603,-0.118404932320118,0.248694211244583,0.107493042945862,C
1526529341.77495,0.0677319673586918,0.0800435306589858,1.58688341074833,-0.129078447818756,0.255525708198547,0.105428278446198,C
1526529341.78489,0.0686143699093256,0.0762291925437098,1.59807038546457,-0.151308193802834,0.259352415800095,0.104139566421509,C
1526529341.79682,0.0693873997059491,0.0730980684888465,1.60967378799112,-0.160729810595512,0.251316666603088,0.102625727653503,C
1526529341.80494,0.0710169694285785,0.0704868819856906,1.62125739763359,-0.169291794300079,0.244195625185966,0.0969765186309814,C
1526529341.81513,0.0737658363267016,0.0678016766580621,1.63212834708409,-0.173749312758446,0.242233991622925,0.0951931476593018,C
1526529341.83047,0.0776981992964134,0.0645820943860657,1.64173268444174,-0.183476269245148,0.245094463229179,0.107041001319885,C
1526529341.83506,0.0818233207927823,0.0608223874933035,1.64996447777609,-0.18096137046814,0.254174798727036,0.127837121486664,C
1526529341.84549,0.0849135822247691,0.0572371517831241,1.65735735382312,-0.167649954557419,0.273789167404175,0.162504732608795,C
1526529341.85523,0.0864443512670706,0.054351516543141,1.66464704623841,-0.156475931406021,0.298297524452209,0.187543451786041,C
1526529341.86604,0.086219278151666,0.0514662747228658,1.6723565734595,-0.140869036316872,0.305822849273682,0.178467988967896,C
1526529341.87536,0.0845434318289075,0.0475580641634669,1.68060665673584,-0.137569904327393,0.279076993465424,0.129044592380524,C
1526529341.88551,0.0829862351926698,0.042675127564595,1.689380710607,-0.16512143611908,0.232222110033035,0.0818173289299011,C
1526529341.897,0.0828583566054603,0.0377024827193094,1.69851530575183,-0.197359278798103,0.19044928252697,0.0604510903358459,C
1526529341.9056,0.0840813430457474,0.0330219059629453,1.70775610506997,-0.205488011240959,0.144389808177948,0.0415931940078735,C
1526529341.91565,0.0859176395558009,0.0284820162355337,1.71690649395979,-0.219154208898544,0.119512103497982,0.0377007126808167,C
1526529341.93034,0.0882892460657849,0.0236988630942952,1.7254978038945,-0.234161153435707,0.110381826758385,0.0429593920707703,C
1526529341.9358,0.0908617236594518,0.0182950587618687,1.73312224599316,-0.229256078600883,0.103163421154022,0.0409806966781616,C
1526529341.94689,0.0937436273500542,0.0122768092457657,1.73954910232161,-0.21209904551506,0.0994194447994232,0.0455064177513123,C
1526529341.95597,0.096615951174646,0.00585909922345656,1.74495052976925,-0.195600360631943,0.0998532027006149,0.0486177802085876,C
1526529341.96611,0.098731408450916,-0.000634445089879889,1.75008236235669,-0.172866061329842,0.097372755408287,0.036846935749054,C
1526529341.97605,0.0999768455605375,-0.00718759510645504,1.75545994296718,-0.139251723885536,0.0832513123750687,0.0092167854309082,C
1526529341.98611,0.100777127739093,-0.0137089089253292,1.76143867823917,-0.12044882029295,0.0647216960787773,-0.0266825556755066,C
1526529341.99802,0.101728120802754,-0.0197709754252754,1.76791915691393,-0.130295678973198,0.0588741116225719,-0.048638641834259,C
1526529342.00626,0.103286949107026,-0.0250467981845294,1.77457096983386,-0.14068391919136,0.0573227629065514,-0.0644339323043823,C
1526529342.01632,0.105713209160651,-0.0294821010530782,1.78079413275163,-0.158510059118271,0.0478842258453369,-0.0703308582305908,C
1526529342.02769,0.108653907822326,-0.0333273658702459,1.78667036872878,-0.184460282325745,0.0497629083693027,-0.0626019239425659,C
1526529342.03654,0.111904092817032,-0.0369747270765962,1.79237272889479,-0.212485402822495,0.0583400912582874,-0.0458139181137085,C
1526529342.04643,0.114953303790828,-0.0407978499388934,1.79835791074064,-0.226070240139961,0.0494692027568817,-0.0224112272262573,C
1526529342.05647,0.117139539055858,-0.0448940298361475,1.80474402476544,-0.224969327449799,0.0186128690838814,-0.00278842449188232,C
1526529342.06688,0.118210069063799,-0.0490382020045962,1.81153753240669,-0.224833503365517,-0.0226818807423115,-0.00181019306182861,C
1526529342.07685,0.118375242325041,-0.0526735993324349,1.81839722015567,-0.225295931100845,-0.068045362830162,-0.00485134124755859,C
1526529342.08687,0.117751308113697,-0.0554531054451317,1.82470307357922,-0.233036637306213,-0.100605964660645,-0.0252518057823181,C
1526529342.09696,0.116693670039333,-0.0572547670561486,1.82962126649107,-0.254772692918777,-0.120425395667553,-0.0431123971939087,C
1526529342.10683,0.115491606707339,-0.0580773983278803,1.83284130787706,-0.257206797599792,-0.128616660833359,-0.0559141635894775,C
1526529342.11698,0.113809527245374,-0.0577963853006968,1.83475228257564,-0.249955713748932,-0.114252254366875,-0.0524099469184875,C
1526529342.12744,0.111739599158227,-0.0563230877925105,1.83620014225387,-0.257860481739044,-0.0803869366645813,-0.0249179601669312,C
1526529342.13706,0.109101306865884,-0.0540329987639914,1.83760223461313,-0.247367382049561,-0.0671597868204117,-0.00776320695877075,C
1526529342.1474,0.105478603929608,-0.0512422020878058,1.83897742796452,-0.233349218964577,-0.0715444833040237,-0.00347614288330078,C
1526529342.15736,0.101346694559341,-0.0484432147953084,1.83965946960858,-0.222850203514099,-0.102104693651199,-0.00835877656936646,C
1526529342.16791,0.0968222095908389,-0.046310247921583,1.83931487681285,-0.198358684778214,-0.141340702772141,-0.0288987755775452,C
1526529342.17764,0.0927227276094598,-0.045380843008705,1.83769466750536,-0.196513712406158,-0.150498330593109,-0.0416828989982605,C
1526529342.18757,0.0896021292486358,-0.046051882963323,1.83514423111812,-0.192918255925179,-0.159164264798164,-0.0587788820266724,C
1526529342.1981,0.0877726151437649,-0.0485916504394331,1.83187980935199,-0.185426324605942,-0.167331680655479,-0.0748804807662964,C
1526529342.20767,0.0870760375000057,-0.0525674084457139,1.8281140131193,-0.195442676544189,-0.156272441148758,-0.0850297808647156,C
1526529342.21784,0.0872449114093558,-0.0571441251301843,1.82357513695792,-0.20384381711483,-0.146468505263329,-0.0921914577484131,C
1526529342.22793,0.0872701380719948,-0.0614336273761104,1.81805556701856,-0.206303417682648,-0.144540131092072,-0.0947967171669006,C
1526529342.238,0.0865423016417872,-0.0646569518910182,1.81131912784868,-0.202434092760086,-0.137701511383057,-0.0774798989295959,C
1526529342.24785,0.0849698538046252,-0.0669571136914477,1.80347194394088,-0.189383238554001,-0.130200549960136,-0.0626036524772644,C
1526529342.25815,0.0827686921336188,-0.0691250525356524,1.79456644465248,-0.186953663825989,-0.120598949491978,-0.0540979504585266,C
1526529342.26814,0.0799523154980092,-0.0714134520555438,1.78484236555597,-0.171582490205765,-0.120837017893791,-0.0357039570808411,C
1526529342.27822,0.0764232542881177,-0.0735925479541706,1.77417267906762,-0.155884623527527,-0.118982076644897,-0.0203733444213867,C
1526529342.28818,0.0723664015232736,-0.0754863642011438,1.76248539684733,-0.151717692613602,-0.106466330587864,-0.0236312747001648,C
1526529342.29853,0.067897218198722,-0.0772595699263575,1.74975204091193,-0.1466373950243,-0.109836541116238,-0.032761812210083,C
1526529342.30862,0.0630236060037436,-0.0790441979620754,1.73615850132919,-0.12430864572525,-0.103253908455372,-0.0325829982757568,C
1526529342.31867,0.0580968144089519,-0.0810334583142092,1.72196105162408,-0.108013957738876,-0.0914886295795441,-0.0357251763343811,C
1526529342.32959,0.0533480648696441,-0.0834761393220704,1.70766027726446,-0.102728128433228,-0.0803579837083817,-0.0508749485015869,C
1526529342.33863,0.0489390610528077,-0.0861427754319711,1.69325359773032,-0.0863357707858086,-0.081611230969429,-0.0556977391242981,C
1526529342.34883,0.0447776994565289,-0.0887566367877934,1.67862535306934,-0.0704654231667519,-0.0788134858012199,-0.065298855304718,C
1526529342.35957,0.0408089293756218,-0.0911963534545304,1.66390771720727,-0.0541625916957855,-0.0690973401069641,-0.0718490481376648,C
1526529342.36878,0.0368709576137062,-0.0932010829125543,1.64941135085825,-0.0268454253673553,-0.0626707077026367,-0.067685067653656,C
1526529342.37904,0.0327774243719194,-0.0946188736988344,1.63545273849042,0.000166185200214386,-0.0509444326162338,-0.0631136298179626,C
1526529342.38884,0.0281501786566704,-0.0952750198808977,1.62231153427924,0.0253106690943241,-0.0568466484546661,-0.0523848533630371,C
1526529342.39902,0.022193405771647,-0.0944903113037188,1.61029270498339,0.0586874485015869,-0.0686692222952843,-0.0285711884498596,C
1526529342.40894,0.0148165993023377,-0.0917527420965979,1.5994471224838,0.0604568421840668,-0.0561321154236794,-0.00370562076568604,C
1526529342.41899,0.0066659273177274,-0.0876233250045236,1.58979128759833,0.0397616736590862,-0.0385457873344421,-0.00753629207611084,C
1526529342.43138,-0.00072238340997989,-0.0833624005727011,1.58055739468228,0.034060325473547,-0.0506578534841537,-0.0187472105026245,C
1526529342.43915,-0.00657530534464653,-0.0801546375889007,1.5707418391896,0.0514760203659534,-0.0607817322015762,-0.0333685874938965,C
1526529342.4492,-0.0109603725240557,-0.0782436597313036,1.55965934610427,0.0810712724924088,-0.0585563033819199,-0.0309516191482544,C
1526529342.45965,-0.0141905677748326,-0.0773361713986047,1.54764375343005,0.116366304457188,-0.0608711689710617,-0.0196301341056824,C
1526529342.4699,-0.0171529490777223,-0.0770383240004933,1.53483286766552,0.14648050069809,-0.0370146334171295,-0.0133363008499146,C
1526529342.4818,-0.0200282329905423,-0.0766686678913266,1.5220063672729,0.162042647600174,-0.00704401731491089,0.00923705101013184,C
1526529342.49,-0.0236081133228661,-0.0757289576148402,1.5098018688096,0.198281913995743,0.0198023915290833,0.0219412446022034,C
1526529342.50227,-0.0281703422023547,-0.074129995785671,1.49877157516302,0.237180441617966,0.042042002081871,0.0307474732398987,C
1526529342.51015,-0.0333587320723031,-0.0720707537596471,1.48883776532676,0.273988604545593,0.0535867139697075,0.0247266888618469,C
1526529342.52027,-0.0388313441365035,-0.0702027833009741,1.47986817694854,0.310546010732651,0.0679469108581543,-0.00817453861236572,C
1526529342.53389,-0.0440094502467371,-0.0690846116858511,1.47134751225163,0.323217689990997,0.0720530897378922,-0.04769366979599,C
1526529342.54034,-0.0482599676955656,-0.0685196543121043,1.46328777473869,0.347093462944031,0.0637666136026382,-0.0670917630195618,C
1526529342.55037,-0.0516635131882432,-0.0678222853363228,1.45562740588403,0.360680103302002,0.0703217387199402,-0.0688008666038513,C
1526529342.56139,-0.0540537654558313,-0.0667520468835304,1.449012198072,0.356885612010956,0.0855497121810913,-0.0711132884025574,C
1526529342.57075,-0.0556524121625406,-0.0654404409356503,1.44359440829581,0.355233013629913,0.0941063761711121,-0.0713278651237488,C
1526529342.58274,-0.0563362179684625,-0.0641984999867818,1.43959291249326,0.351539552211761,0.10233423858881,-0.0673184394836426,C
1526529342.59064,-0.05581704276357,-0.0635237307199582,1.4364901223402,0.341045409440994,0.100581482052803,-0.0840920805931091,C
1526529342.60226,-0.0538875540192817,-0.0635092775015688,1.43439803506249,0.319133728742599,0.0997871905565262,-0.0970166325569153,C
1526529342.61121,-0.0503397712604327,-0.0634950079838155,1.4329324569335,0.295898854732513,0.0934232622385025,-0.0936879515647888,C
1526529342.62085,-0.0455839977789603,-0.0628040967746232,1.43241948515919,0.256354838609695,0.087948240339756,-0.0958276987075806,C
1526529342.63506,-0.0399923563120961,-0.0609818247665994,1.43273680873674,0.207219988107681,0.0785060375928879,-0.0850545763969421,C
1526529342.64101,-0.034363079822975,-0.058033649174484,1.43393219913338,0.182308733463287,0.0602850541472435,-0.060363233089447,C
1526529342.65101,-0.0295379449027279,-0.0546063163013427,1.43539245568562,0.170328244566917,0.0337692052125931,-0.0347479581832886,C
1526529342.66533,-0.0254749454606741,-0.0517554925390444,1.43720744318332,0.127443075180054,-0.003392543643713,0.0084991455078125,C
0,0,0,0,0,0,0,0,0
1526529343.53585,0.0346076654074341,0.07151358061024,1.27223289091639,0.0671570003032684,0.0115161165595055,0.0189259648323059,C
1526529343.54584,0.0336706094210484,0.0703696153666944,1.27370061240117,0.0870855823159218,-0.0136880800127983,-0.00938820838928223,C
1526529343.55573,0.0325299052726418,0.0681167510269555,1.2756219958117,0.0847692862153053,-0.0289665460586548,-0.0132994055747986,C
1526529343.56591,0.0312304031971469,0.0653241248830536,1.27739426651726,0.080550879240036,-0.0214990526437759,-0.0117749571800232,C
1526529343.576,0.0297661454828271,0.0627310194145912,1.27902579362468,0.0752314925193787,-0.0125817209482193,-0.0142653584480286,C
1526529343.58611,0.0280592775627584,0.0607562693628876,1.28067439009296,0.0773733705282211,0.00322378054261208,-0.0184583067893982,C
1526529343.59792,0.0259955514809466,0.0595546222713386,1.28295701045154,0.0784998685121536,0.028483048081398,-0.0172470211982727,C
1526529343.60623,0.0237816615716922,0.0590586100959684,1.28631989123466,0.0797471478581429,0.033160638064146,-0.0151026844978333,C
1526529343.61628,0.0214432395292139,0.0588476694584491,1.29076919343716,0.114017277956009,0.00321068242192268,-0.022422730922699,C
1526529343.62794,0.0193044221314189,0.05809463206833,1.29529875427228,0.134843111038208,-0.0320106744766235,-0.0407678484916687,C
1526529343.63701,0.0178662097718913,0.056597426391315,1.29917616846872,0.135178491473198,-0.048520065844059,-0.037405252456665,C
1526529343.64715,0.0170164576816164,0.0547318426020608,1.30206207847283,0.126320391893387,-0.0343610309064388,-0.0186861753463745,C
1526529343.65649,0.0162840052988229,0.0528845516007374,1.30426123609944,0.135106667876244,-0.022579550743103,-0.00676435232162476,C
1526529343.66657,0.0153542887312712,0.0511650972255776,1.30585860701109,0.157975733280182,-0.018147386610508,-0.00595831871032715,C
1526529343.67645,0.0144431397147276,0.0495896998502205,1.30764209152167,0.163492605090141,0.00200773030519485,-0.00551450252532959,C
1526529343.68669,0.0138105723995963,0.0480510191982832,1.30991705290195,0.177718862891197,0.0143868997693062,-0.00678855180740356,C
1526529343.69753,0.0133158508770904,0.0465711583426038,1.31310420837485,0.192265391349792,0.0195157527923584,-0.00694072246551514,C
1526529343.70684,0.0129402821548248,0.0454220620825491,1.31711574073581,0.194623470306396,0.0220910161733627,-7.75456428527832e-05,C
1526529343.71688,0.0128522410439385,0.0447171123540748,1.32203805286568,0.194726273417473,0.0147949829697609,0.00465506315231323,C
1526529343.7273,0.012997051584967,0.0442191338724762,1.32740879567818,0.186448395252228,0.0128173977136612,0.00273746252059937,C
1526529343.73711,0.0134859412509778,0.0436870374871105,1.33296164105038,0.179764643311501,0.0122247785329819,0.000190913677215576,C
1526529343.74704,0.0143299861088202,0.0429000066422917,1.33836562567362,0.17428232729435,0.0162907801568508,0.00198322534561157,C
1526529343.75705,0.0153020588387975,0.0417473693809207,1.34393610696285,0.169938310980797,0.0249810926616192,0.0114933252334595,C
1526529343.76735,0.0159547584364183,0.0402283623866789,1.34943409940229,0.173130482435226,0.0317641422152519,0.00928705930709839,C
1526529343.77725,0.01645748283126,0.0385461376547082,1.3549815953032,0.166065856814384,0.0375295132398605,0.00514900684356689,C
1526529343.78728,0.0166512080145747,0.037055497955912,1.36047497423115,0.162773832678795,0.0398698933422565,-0.00538748502731323,C
1526529343.79755,0.0165909075490007,0.0362192918859236,1.36623562780047,0.154212355613708,0.0497611798346043,-0.00982666015625,C
1526529343.80755,0.0163484019346414,0.036320893721035,1.37254868414696,0.146611720323563,0.0550354421138763,-0.000640571117401123,C
1526529343.81759,0.0158418519771854,0.0370816726537269,1.37956305032778,0.146187528967857,0.0629978626966476,0.00576364994049072,C
1526529343.82801,0.0155091643366959,0.037921776768027,1.3870966842266,0.133916676044464,0.0730536803603172,0.00805670022964478,C
1526529343.83764,0.0157261750068213,0.0383168876183665,1.39494218033489,0.121859259903431,0.0832293927669525,0.0083281397819519,C
1526529343.8478,0.016539511111083,0.0381154106140052,1.40274853193879,0.115751698613167,0.0868275016546249,0.0154333114624023,C
1526529343.85779,0.0175732781176262,0.0375327330726788,1.41035908234614,0.10907269269228,0.101076781749725,0.0194660425186157,C
1526529343.86788,0.0186628129911729,0.0368968466904665,1.41785413398461,0.0931978970766068,0.119194388389587,0.0136716365814209,C
1526529343.87787,0.0198343745283829,0.0364824964429005,1.42532723278778,0.0908826366066933,0.123495280742645,0.010231077671051,C
1526529343.88789,0.0211862128597618,0.0364047606940277,1.43287599870286,0.083413153886795,0.136402815580368,0.0106334686279297,C
1526529343.89814,0.0225570315449126,0.0365382990023726,1.4407521892429,0.0654268562793732,0.14843812584877,0.0147795677185059,C
1526529343.90823,0.0234413501453159,0.0367708919114995,1.44888791003099,0.045088604092598,0.17148245871067,0.0187637805938721,C
1526529343.91809,0.0240662618009362,0.0369831952115272,1.45708720309221,0.017593752592802,0.197497218847275,0.0129732489585876,C
1526529343.92848,0.025081443345558,0.0369084199691215,1.46516454716863,-0.000556116923689842,0.213535785675049,-0.0035436749458313,C
1526529343.93819,0.0277466328884231,0.0360637947667603,1.47287471790422,-0.0249479301273823,0.223082959651947,-0.0132725238800049,C
1526529343.94839,0.0321950734372162,0.0340255494468238,1.48016317393485,-0.0468498319387436,0.227317333221436,-0.00846683979034424,C
1526529343.9592,0.037220349657507,0.0309161206757637,1.48702095892401,-0.0422598905861378,0.227627500891685,0.0122422575950623,C
1526529343.96848,0.0419964300187597,0.0273859248194315,1.49373285440583,-0.0350561067461967,0.223686814308167,0.0389504432678223,C
1526529343.97831,0.0457375728359554,0.0240677859359998,1.50044332232168,-0.0195395573973656,0.211351841688156,0.0528334975242615,C
1526529343.98877,0.0479755746921152,0.021821540088434,1.5076037659829,-0.0178096406161785,0.200698584318161,0.068206787109375,C
1526529343.99876,0.0485781537097095,0.0210905360994923,1.51543149268461,-0.0176186785101891,0.198014631867409,0.0836963057518005,C
1526529344.0087,0.0476315847375981,0.0218257024275611,1.5239558843783,-0.0293832346796989,0.198032468557358,0.0970775485038757,C
1526529344.01879,0.0462527936072282,0.0231872424163176,1.53270107393637,-0.0359699614346027,0.196952253580093,0.103672862052917,C
1526529344.02943,0.0455720492928971,0.0237742051323573,1.54142129607035,-0.0475117787718773,0.186491698026657,0.0904609560966492,C
1526529344.03889,0.045975539973047,0.0229666413323151,1.54998665802631,-0.0659514889121056,0.180679470300674,0.0922466516494751,C
1526529344.04892,0.0472272867323897,0.0211023364331212,1.55855931138291,-0.0737647712230682,0.181501165032387,0.10773229598999,C
1526529344.05917,0.0486790718376281,0.0187578853913234,1.56713788648477,-0.0797792077064514,0.183566957712173,0.117337703704834,C
1526529344.06906,0.0496976269249342,0.0163745474907346,1.57565687562127,-0.0766480416059494,0.188859164714813,0.117359936237335,C
1526529344.07922,0.0496381729090168,0.0142628692102094,1.58414333763704,-0.072485662996769,0.203852832317352,0.106500446796417,C
1526529344.08912,0.048999270098679,0.0124419946777247,1.59278058088832,-0.080897256731987,0.204244658350945,0.0835917592048645,C
1526529344.09929,0.0484627940888636,0.0108607452851551,1.60160075331223,-0.0838718712329865,0.194149106740952,0.0596952438354492,C
1526529344.10932,0.0483692787628632,0.00939718501792398,1.61054498261142,-0.0881126821041107,0.180493846535683,0.0405037403106689,C
1526529344.1194,0.0490485000654537,0.00802852054390149,1.62003083012873,-0.102707669138908,0.15408556163311,0.0317240357398987,C
1526529344.13005,0.0503383720235511,0.00667618403278696,1.63031728107869,-0.123115673661232,0.13132518529892,0.0347064137458801,C
1526529344.13935,0.0521775815910578,0.00533321426936176,1.64104227566531,-0.151472628116608,0.122963190078735,0.0443095564842224,C
1526529344.14947,0.0548795868690873,0.00361424082291923,1.65118462804464,-0.176601558923721,0.104078099131584,0.0393356084823608,C
1526529344.15965,0.0587023712846734,0.000654302261675347,1.65960136454485,-0.184370547533035,0.0815106257796288,0.0219587683677673,C
1526529344.16971,0.0632058543678215,-0.00354503079746971,1.6660272623126,-0.191001504659653,0.0689952597022057,0.0156206488609314,C
1526529344.18033,0.0680420227725573,-0.00795051291166987,1.67064259280945,-0.180124208331108,0.0670922920107841,0.0327647924423218,C
1526529344.18972,0.0728119427143036,-0.0115580024909219,1.67356858282579,-0.147541329264641,0.0946739464998245,0.0520625710487366,C
1526529344.20004,0.0780154576251842,-0.0140728197061506,1.67539418838398,-0.115938246250153,0.151744902133942,0.0661800503730774,C
1526529344.20997,0.0838810392959077,-0.015945158906727,1.67619820670276,-0.0968335568904877,0.227219581604004,0.0781594514846802,C
1526529344.21994,0.0907769280254174,-0.0174700400855586,1.67790819008115,-0.132890030741692,0.189043298363686,0.0860775709152222,C
1526529344.23067,0.0984854025351938,-0.01925224720763,1.6818195241063,-0.184291288256645,0.144597813487053,0.058415412902832,C
1526529344.24018,0.105894041953645,-0.0218056617965146,1.68774934403371,-0.208347454667091,0.0876626223325729,0.0301265120506287,C
1526529344.25019,0.11200482060627,-0.0251124766377228,1.69447165293872,-0.219309940934181,0.0437225624918938,0.0266232490539551,C
1526529344.26093,0.116770157101785,-0.028500697464819,1.70079315869379,-0.233553528785706,0.0333622880280018,0.057666540145874,C
1526529344.27053,0.120454697616351,-0.0313814493247859,1.70600456696942,-0.240999773144722,0.0411639884114265,0.0863046050071716,C
1526529344.28086,0.123132305992076,-0.0337459869039084,1.71002896771962,-0.241846233606339,0.0376105196774006,0.09026700258255,C
1526529344.29065,0.124882492199622,-0.0360841169329188,1.71339474953124,-0.245112955570221,0.0260117240250111,0.0720558166503906,C
1526529344.30094,0.126363060953985,-0.0386481693004483,1.71677174862042,-0.239061504602432,0.00921301171183586,0.0582560896873474,C
