Time,Roll,Pitch,Yaw,AccelX,AccelY,AccelZ,Letter,Name
1526528481.92212,0.0161884344911861,0.0951978091240894,0.900702159235917,-0.00843926146626472,0.101508550345898,0.0711930394172668,B
1526528481.92711,0.0139283628711043,0.0970216058227406,0.900852120817014,0.0366441830992699,0.115454666316509,0.0280832052230835,B
1526528481.93947,0.0111892368318615,0.0976760442433641,0.90107503773633,0.01404133066535,0.149278610944748,0.0337300896644592,B
1526528481.94714,0.00898948016955966,0.0979195505208962,0.901292449907317,-0.0395096503198147,0.193573087453842,0.0738895535469055,B
1526528481.95678,0.00738664482137377,0.0980627121955071,0.901352154052894,-0.0387994535267353,0.232778057456017,0.0625360608100891,B
1526528481.96863,0.00628137776115165,0.097952932821739,0.901274790401093,-0.0430401638150215,0.250307977199554,0.0620965361595154,B
1526528481.97689,0.00519119533864941,0.0975403904525234,0.901180160265832,-0.0444731377065182,0.275379568338394,0.0476166605949402,B
1526528481.98689,0.00356097076437737,0.0970693635303818,0.901297014865625,-0.0480540879070759,0.300103038549423,0.0337992906570435,B
1526528482.01421,0.000796116886608838,0.0968568019468218,0.901675438718045,-0.0539692677557468,0.330714225769043,0.0117464065551758,B
1526528482.01472,-0.00306144496901912,0.0973022840357271,0.902210141316435,-0.0710192024707794,0.363841950893402,-0.027363657951355,B
1526528482.01749,-0.00701251981066738,0.0987017837962104,0.902805470623201,-0.0932871699333191,0.377411246299744,-0.0671321749687195,B
1526528482.02717,-0.0105368570267854,0.101276527972,0.903453304661949,-0.0885163545608521,0.353987395763397,-0.0841436386108398,B
1526528482.03725,-0.0139488797863755,0.104910884677807,0.904168331219543,-0.0491165444254875,0.319516509771347,-0.0813547968864441,B
1526528482.04715,-0.0172998709560463,0.108651027806235,0.905144519619329,-0.0163113009184599,0.313668102025986,-0.0675842761993408,B
1526528482.05742,-0.0197121803427627,0.111615483422237,0.906905375447416,-0.00958655588328838,0.307169407606125,-0.0522378087043762,B
1526528482.0718,-0.0204350661216655,0.11251087998374,0.909453461156,-0.0123035870492458,0.305419415235519,-0.0512537360191345,B
1526528482.07792,-0.0189781406241635,0.110374912544877,0.912790159451146,-0.0323622301220894,0.306226372718811,-0.074638843536377,B
1526528482.08795,-0.0153730708195946,0.105307392449898,0.916573918963837,-0.0495625473558903,0.270106136798859,-0.0745659470558167,B
1526528482.09827,-0.0113763622333268,0.0982796188676268,0.920158382382387,-0.0159004591405392,0.226951435208321,-0.0539012551307678,B
1526528482.1081,-0.00923215936880834,0.0908709217812092,0.923724141140387,-0.0187601633369923,0.195009216666222,-0.0221737623214722,B
1526528482.12038,-0.00909530862499344,0.0845643482471469,0.927039208084433,-0.036194883286953,0.169241428375244,0.0111711025238037,B
1526528482.12823,-0.0102026690570104,0.0795137049005348,0.929575605057815,0.00327328406274319,0.146965354681015,0.0173115730285645,B
1526528482.13893,-0.0125842207924319,0.0756393960995642,0.931619871200645,-0.00266510620713234,0.118932768702507,-0.000618934631347656,B
1526528482.14832,-0.0148588960719596,0.0727960162086915,0.933282568053562,0.0172756612300873,0.0915458202362061,0.0124391317367554,B
1526528482.15829,-0.016094249428017,0.0705189310754124,0.935018752854718,0.0561994276940823,0.0723525881767273,0.0394232869148254,B
1526528482.17201,-0.0165088716179397,0.0679010262487654,0.937450070987545,0.0608426406979561,0.0602805018424988,0.0672770142555237,B
1526528482.17804,-0.0158898406916176,0.0639474943252172,0.941053792899086,0.0589627772569656,0.0448456928133965,0.0772367715835571,B
1526528482.18812,-0.0140089712669933,0.0582685916134385,0.946042738842222,0.040412962436676,-0.00684311240911484,0.0774285197257996,B
1526528482.19844,-0.0110850969692172,0.0509615841210978,0.952243528686157,0.013176191598177,-0.078302413225174,0.0733931660652161,B
1526528482.20837,-0.00746657508747577,0.0424167914199196,0.958604780231047,-0.000306933186948299,-0.120605573058128,0.0600467920303345,B
1526528482.2186,-0.00296843867958285,0.0328649805571313,0.964237743146236,-0.015770960599184,-0.159371167421341,0.0391589403152466,B
1526528482.22885,0.00195390945396544,0.0228626885854054,0.968766588894725,-0.0248873569071293,-0.207501247525215,0.0133933424949646,B
1526528482.23909,0.0071265339830295,0.013254871871052,0.971808519844193,-0.0265502855181694,-0.234563514590263,-0.00227999687194824,B
1526528482.24895,0.0124448508411918,0.00467468596733278,0.973485949577413,-0.0207604318857193,-0.232462167739868,-0.00191938877105713,B
1526528482.25905,0.0172470126329621,-0.00281470439505655,0.974627987858576,0.00420776754617691,-0.237235471606255,6.09159469604492e-05,B
1526528482.27198,0.0211376191895717,-0.00935084553109541,0.975978699223181,0.0314008891582489,-0.235501229763031,0.00621789693832397,B
1526528482.27909,0.0245532056339026,-0.0151713524495584,0.978216281799163,0.0295444950461388,-0.227191641926765,0.0189164280891418,B
1526528482.28929,0.0277248450925459,-0.0208470332184414,0.981400764416221,0.0366768203675747,-0.267458081245422,0.0235836505889893,B
1526528482.29988,0.0311522339888435,-0.0269716989506011,0.985120809053639,0.0655438229441643,-0.301275670528412,0.0108700394630432,B
1526528482.30932,0.0344884390893334,-0.0331226615427548,0.989309911517745,0.0312416553497314,-0.339955598115921,0.00171053409576416,B
1526528482.3202,0.0377698610535235,-0.0389197029687466,0.993145051652899,0.0115993767976761,-0.362777680158615,-0.00250756740570068,B
1526528482.32935,0.0406638176918912,-0.0443634327558879,0.995867924457827,0.00153216347098351,-0.374121844768524,-0.0181366801261902,B
1526528482.3394,0.0426935844912688,-0.0492098998773176,0.99733841554713,0.0020945630967617,-0.385829448699951,-0.0369565486907959,B
1526528482.34947,0.0435816515104604,-0.0527401151979541,0.997927692424544,0.0159257054328918,-0.393490195274353,-0.0330088138580322,B
1526528482.35944,0.0434943591714466,-0.0544821714094397,0.998530615859079,0.0336560159921646,-0.404476583003998,-0.0136738419532776,B
1526528482.37191,0.042678167921668,-0.0541819333359485,0.99993638190732,0.0475920997560024,-0.43756303191185,0.0064581036567688,B
1526528482.38091,0.041585620346591,-0.0520368319005496,1.00250747652136,0.0393542237579823,-0.466579377651215,0.0416520237922668,B
1526528482.38982,0.0399649129540584,-0.0481712574374156,1.00628572819257,0.0390410497784615,-0.490489661693573,0.0871537327766418,B
1526528482.40267,0.0376962300279925,-0.0440542543970473,1.01106448698691,0.0470202825963497,-0.508197128772736,0.128248631954193,B
1526528482.40995,0.0350086991960653,-0.0414464600150262,1.01655065038065,0.0220048278570175,-0.507880508899689,0.135812282562256,B
1526528482.42047,0.0324569824567663,-0.0410335213242239,1.02193618300565,-0.026885025203228,-0.455176055431366,0.106710016727448,B
1526528482.43141,0.0308039919488409,-0.0423868164667166,1.02630693589056,-0.0771581754088402,-0.420380115509033,0.0676433444023132,B
1526528482.4401,0.0293141232396171,-0.0444905580418804,1.02898312606882,-0.0766594558954239,-0.418011039495468,0.0180209279060364,B
1526528482.45028,0.0267162847124346,-0.0459184924331734,1.0300411975462,-0.0475437119603157,-0.416309475898743,-0.0313482880592346,B
1526528482.4601,0.0225360515868466,-0.045212242205923,1.03016682541786,-0.0234724208712578,-0.413406670093536,-0.0647826790809631,B
1526528482.47098,0.0170452247686162,-0.0416224292283267,1.02983201448945,-0.00807272642850876,-0.394958198070526,-0.0748332738876343,B
1526528482.48055,0.0105052637908553,-0.0357120119409295,1.02939010770797,0.00946012325584888,-0.357329189777374,-0.0750030875205994,B
1526528482.49034,0.00344248069388617,-0.0290564279692269,1.02918959253713,0.00135023891925812,-0.288894265890121,-0.0891883969306946,B
1526528482.50133,-0.00323678746570063,-0.0233841943743637,1.02956031368638,-0.0297383461147547,-0.205648303031921,-0.13739413022995,B
1526528482.5105,-0.00827918581595352,-0.0189118289341029,1.03049785384927,-0.0500872582197189,-0.170781433582306,-0.181365430355072,B
1526528482.52064,-0.0115098304096286,-0.0151589484436595,1.03166660733118,-0.0507476069033146,-0.155234053730965,-0.21171373128891,B
1526528482.53176,-0.0133824585985596,-0.0110597808439203,1.03290618476471,-0.0505225695669651,-0.147320538759232,-0.22352409362793,B
1526528482.54071,-0.0140521953729518,-0.00589214818803401,1.03391052304198,-0.0687732174992561,-0.137361839413643,-0.213266134262085,B
1526528482.55089,-0.0142646622024496,0.000618216678028396,1.03463083279183,-0.0724210068583488,-0.127830266952515,-0.177698969841003,B
1526528482.5608,-0.0148768048163879,0.0086165491672485,1.03518447934778,-0.062516875565052,-0.124638564884663,-0.116740167140961,B
1526528482.57116,-0.0158301379270148,0.0173075515716775,1.03530711109841,-0.0865441113710403,-0.0788999795913696,-0.0677189230918884,B
1526528482.58081,-0.0167639120891052,0.0252453375033537,1.03494212894621,-0.120067775249481,-0.0174514353275299,-0.0596784949302673,B
1526528482.59095,-0.0166169178005763,0.031852635420345,1.03383539394271,-0.138787776231766,0.00757051631808281,-0.0720563530921936,B
1526528482.60655,-0.0144961863319281,0.0372138326396325,1.03173281621749,-0.148432448506355,0.0284772180020809,-0.0586739182472229,B
1526528482.61122,-0.0104308255367289,0.0416372241149052,1.02877897886594,-0.126419231295586,0.0453788563609123,-0.0329034924507141,B
1526528482.62109,-0.00540950570552706,0.0450041970012782,1.02517281711615,-0.131452083587646,0.0952972322702408,-0.0224505066871643,B
1526528482.63148,-0.000733686783245663,0.047110731742991,1.0210986790801,-0.146163493394852,0.16281595826149,-0.037669837474823,B
1526528482.6413,0.00294118115283156,0.0484233317910655,1.01702853589802,-0.130821645259857,0.167667105793953,-0.0462357401847839,B
1526528482.65349,0.00580459813868053,0.0499662457788256,1.01324135104753,-0.105894975364208,0.151080712676048,-0.0295546650886536,B
1526528482.66136,0.00832057502809248,0.0524546071935302,1.01009359818739,-0.0807882845401764,0.140656873583794,0.00159597396850586,B
1526528482.67486,0.0103905893277769,0.0561068445800484,1.00801902602137,-0.075132355093956,0.132173001766205,0.036214292049408,B
1526528482.68157,0.0121007398462266,0.0608947366101195,1.00705837190704,-0.0934531390666962,0.138356506824493,0.07134610414505,B
1526528482.6912,0.0132064777766239,0.0666657073917561,1.00687878875081,-0.122444942593575,0.144130989909172,0.106303691864014,B
1526528482.70259,0.0140581368636063,0.0731566766291241,1.00636015628457,-0.163785085082054,0.132310807704926,0.133594453334808,B
1526528482.71119,0.0143684106724654,0.0793314444074174,1.00396885167368,-0.2118019759655,0.15381795167923,0.138292491436005,B
1526528482.72131,0.0138672611935682,0.084090811432601,0.999339860816405,-0.245568305253983,0.186332434415817,0.120912849903107,B
1526528482.7321,0.0125578749921153,0.0866762489771679,0.992908848939912,-0.275678724050522,0.209477305412292,0.105221927165985,B
1526528482.7421,0.0104117576593693,0.0869787492847859,0.98501251657281,-0.291957914829254,0.249726176261902,0.0820421576499939,B
1526528482.75199,0.00757920304943953,0.0857437028124466,0.976325297831703,-0.273725599050522,0.270529419183731,0.0522515773773193,B
1526528482.76203,0.00442655027302438,0.0842239000886927,0.967545253606659,-0.249344930052757,0.275774747133255,0.0436866879463196,B
1526528482.77207,0.00078316136741413,0.0831844472663734,0.959145211974974,-0.237245917320251,0.299168258905411,0.0399530529975891,B
1526528482.78202,-0.00294173479873639,0.0828109030408284,0.951336139064116,-0.226652085781097,0.317411720752716,0.0325032472610474,B
1526528482.79211,-0.00627723418544062,0.0830340029794293,0.943883578691705,-0.231201708316803,0.336677014827728,0.0160204768180847,B
1526528482.80241,-0.00841127407317723,0.0833658681811258,0.936037896544706,-0.248362421989441,0.363512277603149,0.00102365016937256,B
1526528482.81186,-0.00931240307743672,0.0829374867387738,0.927300435901155,-0.232724130153656,0.385714143514633,-0.0158860087394714,B
1526528482.82193,-0.00998284270836532,0.0816105415135784,0.917834593803277,-0.215407609939575,0.400474458932877,-0.0219174027442932,B
1526528482.83817,-0.011384137220582,0.0802318896699392,0.908183638330827,-0.195104151964188,0.414969444274902,0.000365376472473145,B
1526528482.84246,-0.014464476883133,0.079605006739196,0.898756918412088,-0.161546185612679,0.426536321640015,0.0335788726806641,B
1526528482.85423,-0.0197855296077895,0.0799630616569809,0.889810187759431,-0.120476730167866,0.437955886125565,0.0486114621162415,B
1526528482.86254,-0.0269895117982519,0.0812847025180099,0.881833262368066,-0.082538902759552,0.432238936424255,0.0598880648612976,B
1526528482.87276,-0.0351004726568654,0.0833562625950903,0.87514042301637,-0.038133442401886,0.417442500591278,0.0732913613319397,B
1526528482.88283,-0.0429262374481032,0.0855417539470108,0.869680359847286,0.0121012330055237,0.400607764720917,0.0795320868492126,B
1526528482.89283,-0.0493908761887779,0.0869020463186335,0.865330721311114,0.0603996999561787,0.382553815841675,0.078583836555481,B
1526528482.90635,-0.0536833265137915,0.0868612548007806,0.861808005573607,0.113315477967262,0.34218418598175,0.0730112791061401,B
1526528482.91381,-0.0549626671774866,0.0846339848927151,0.858618924415675,0.145406097173691,0.3001549243927,0.0683870315551758,B
1526528482.92305,-0.0533096218132588,0.0801076663756324,0.85533314133805,0.187222987413406,0.266316562891006,0.0654758810997009,B
1526528482.93443,-0.049754426292412,0.0738911042950968,0.852211731292123,0.215507000684738,0.221101716160774,0.0766493082046509,B
1526528482.94314,-0.0463384811341757,0.0667497452109176,0.849074265807001,0.25805652141571,0.19304296374321,0.0831887722015381,B
1526528482.95381,-0.044896039572116,0.0597732484255818,0.846219312118558,0.306824743747711,0.168776959180832,0.0811773538589478,B
1526528482.96485,-0.0458690980175496,0.0541086214717335,0.844104668708589,0.332849502563477,0.141957581043243,0.0840187668800354,B
1526528482.97313,-0.0489049664906423,0.0499602441908016,0.842625823450869,0.358898341655731,0.126035049557686,0.0723567008972168,B
1526528482.98359,-0.0532875102988363,0.0468607697887773,0.841565430773574,0.385174036026001,0.112868398427963,0.0367146730422974,B
1526528482.99341,-0.0577993098911262,0.0443010039699292,0.840749639432058,0.408250629901886,0.0905664190649986,-0.00542652606964111,B
1526528483.00506,-0.061134369958356,0.0419876529679689,0.840242684968514,0.433021187782288,0.0674880146980286,-0.0183270573616028,B
1526528483.01395,-0.0627317221364829,0.0393922307346158,0.840312751795758,0.462803691625595,0.0470877289772034,-0.018427312374115,B
1526528483.02352,-0.0626397988416281,0.0358062108880689,0.841055177486315,0.504972040653229,0.0287184864282608,-0.0326455235481262,B
1526528483.03836,-0.0608231716062383,0.030885419455913,0.842961545080513,0.513683319091797,-0.000216901302337646,-0.0390684008598328,B
1526528483.04367,-0.0575073417655493,0.0249163490812143,0.846222466467517,0.512627482414246,-0.0259285122156143,-0.0566505193710327,B
1526528483.05407,-0.0530253356129085,0.018581247588628,0.850565388713834,0.499890744686127,-0.0427448935806751,-0.0787416100502014,B
1526528483.06511,-0.047999253988098,0.0125644552349493,0.855812526407029,0.486896097660065,-0.0613189302384853,-0.0923103094100952,B
1526528483.07389,-0.0432734096370665,0.00761671377489518,0.861842816583177,0.474365234375,-0.0817388296127319,-0.0970649719238281,B
1526528483.08408,-0.03904241444211,0.00428613841590977,0.868546538894185,0.453216701745987,-0.0878769606351852,-0.0910269618034363,B
1526528483.09404,-0.0349831211886985,0.00227224331988094,0.875502819816823,0.43268096446991,-0.0914472416043282,-0.0844461917877197,B
1526528483.10549,-0.0302477987520037,0.000715102978890326,0.882285947432139,0.402679711580276,-0.100160747766495,-0.0959929823875427,B
1526528483.11425,-0.0240639142412721,-0.000879641587782993,0.888786062616861,0.376493841409683,-0.12389600276947,-0.0919952392578125,B
1526528483.12442,-0.0166722446050718,-0.00246479183906125,0.895390075198659,0.360894441604614,-0.132866397500038,-0.0679368376731873,B
1526528483.13476,-0.00877451558528629,-0.00408232097428714,0.902897370830094,0.337128221988678,-0.124062165617943,-0.0353862047195435,B
1526528483.1445,-0.000958125328100527,-0.00603880531639202,0.911885005870318,0.311260849237442,-0.115291699767113,-0.0147587060928345,B
1526528483.15447,0.00624214082266423,-0.00856601712852715,0.922466422027659,0.268172204494476,-0.092870719730854,-0.00236022472381592,B
1526528483.16495,0.0119401537770421,-0.0114669166342384,0.934429351056574,0.223839730024338,-0.0822827070951462,0.000595390796661377,B
1526528483.17449,0.0156548485642911,-0.0141671128254886,0.947553940252219,0.173388496041298,-0.0731571167707443,-0.0143219828605652,B
1526528483.18465,0.0172752415993687,-0.0158065158245135,0.961601179500965,0.103943593800068,-0.0821968466043472,-0.0381616950035095,B
1526528483.19452,0.0171911856172741,-0.0155299579455823,0.976248314975424,0.0152976959943771,-0.10613602399826,-0.0679715871810913,B
1526528483.20691,0.0160084367761767,-0.0130740216030058,0.991267150367871,-0.0874632894992828,-0.122143477201462,-0.0848388075828552,B
1526528483.21474,0.0145468110325863,-0.00913649053313174,1.00628044750001,-0.198475137352943,-0.123134776949883,-0.103922545909882,B
1526528483.22495,0.0141664345286704,-0.00499784127329509,1.02090221698193,-0.303640276193619,-0.114586442708969,-0.130697548389435,B
1526528483.24552,0.0158182718051415,-0.00183587409641248,1.03465933695572,-0.389505326747894,-0.113698057830334,-0.153981149196625,B
1526528483.24701,0.0196598648967132,-0.000134485895015965,1.04667403766174,-0.457997828722,-0.0956545025110245,-0.172541260719299,B
1526528483.25471,0.0255053037621085,0.00053326785764687,1.05651897639192,-0.524297118186951,-0.0745399743318558,-0.180195987224579,B
1526528483.26507,0.0324578996227872,0.00114709946367698,1.0644220437195,-0.568447649478912,-0.0793735310435295,-0.167794227600098,B
1526528483.2754,0.0394237560061777,0.00265200950918997,1.07066921137312,-0.595260560512543,-0.0881225317716599,-0.141527593135834,B
1526528483.28467,0.0453623666477811,0.00553258600085633,1.07552527780339,-0.622143626213074,-0.0858828499913216,-0.109015166759491,B
1526528483.29489,0.0497980710999781,0.00988508807717072,1.07913628263534,-0.656845986843109,-0.0724362432956696,-0.0716467499732971,B
1526528483.30492,0.0523902983416783,0.015462427645665,1.08140462785314,-0.675162792205811,-0.0580702945590019,-0.0264242887496948,B
1526528483.31486,0.0531274814877611,0.0217603941815743,1.08218982226126,-0.663090527057648,-0.0501559972763062,0.0192419290542603,B
1526528483.32507,0.0523744696124123,0.0280203520849011,1.08134686126806,-0.644615113735199,-0.0283950567245483,0.0570441484451294,B
1526528483.33546,0.0502802090160392,0.0335198159445362,1.07881235648594,-0.617750942707062,-0.00779200345277786,0.0822968482971191,B
1526528483.34505,0.0471936300574002,0.0379564158659014,1.07470845222764,-0.587867856025696,0.00627005845308304,0.098142683506012,B
1526528483.35497,0.0435278937673725,0.0414420928044944,1.06922547521278,-0.556385695934296,0.0292842350900173,0.117778122425079,B
1526528483.36864,0.0392111417647915,0.0441521037284342,1.06250345780735,-0.515511751174927,0.0451448410749435,0.123455882072449,B
1526528483.3751,0.0338739996255447,0.0462521965389271,1.0547142831563,-0.471056640148163,0.072190910577774,0.125325858592987,B
1526528483.38548,0.0273807879329889,0.0480178239241243,1.04603888588654,-0.432253032922745,0.102137558162212,0.120238065719604,B
1526528483.39519,0.0197993780086468,0.0495560298773255,1.03667327683267,-0.399412453174591,0.130880355834961,0.110988080501556,B
1526528483.40532,0.0112699197792113,0.0507319670679149,1.02671042632877,-0.356363207101822,0.15601110458374,0.0959247350692749,B
1526528483.41539,0.00227005570833363,0.0515317990900608,1.01622241643961,-0.307717472314835,0.167094320058823,0.0738499760627747,B
1526528483.42535,-0.00648376559531812,0.0521392056894142,1.00527192408617,-0.261820375919342,0.168494373559952,0.0581445693969727,B
1526528483.43554,-0.0149899714310853,0.0525747024487637,0.993716592186655,-0.208267390727997,0.177764102816582,0.0485243797302246,B
1526528483.44553,-0.0235383846479292,0.0527951209555917,0.98187185330322,-0.146036982536316,0.1856899112463,0.0385674238204956,B
1526528483.45559,-0.0321431465239466,0.0528631203343025,0.970239000497878,-0.0962336957454681,0.197400271892548,0.0329993367195129,B
1526528483.46783,-0.040944425345111,0.0528216192524551,0.959062227431135,-0.05229427292943,0.213227972388268,0.0322836637496948,B
1526528483.47577,-0.0498292561005385,0.0525677533913518,0.948443668072589,-0.00975418463349342,0.227027803659439,0.0289190411567688,B
1526528483.48576,-0.05877002436324,0.0518436732176305,0.938221368441193,0.024996392428875,0.237779319286346,0.0217888355255127,B
1526528483.49579,-0.0674189293217588,0.0504671035434313,0.92812175032751,0.0652374178171158,0.23809826374054,0.00814610719680786,B
1526528483.50597,-0.0749438793355837,0.0483438030332666,0.918071037139877,0.11508472263813,0.227325826883316,0.000819206237792969,B
1526528483.5159,-0.0808166813660828,0.0453548360360164,0.908061076008071,0.173770099878311,0.209111869335175,-0.00563168525695801,B
1526528483.52603,-0.0849498144896666,0.0414614589836139,0.898049215033316,0.244976788759232,0.187964469194412,-0.00582045316696167,B
1526528483.53607,-0.0870802624629267,0.0366160844021894,0.888283475766572,0.31591585278511,0.176698848605156,-4.70876693725586e-05,B
1526528483.54612,-0.0873783005489046,0.0308760439343605,0.879339023351741,0.364004731178284,0.171725019812584,0.00436180830001831,B
1526528483.55626,-0.0867272619283381,0.0245021987032347,0.871587822203793,0.398039728403091,0.17089256644249,0.00967538356781006,B
1526528483.56661,-0.0864807977605461,0.0180717590935138,0.865221693758725,0.428354173898697,0.168232515454292,0.018988311290741,B
1526528483.57632,-0.0876920656333244,0.0121481491184696,0.860250598895874,0.454974383115768,0.160158097743988,0.0265100002288818,B
1526528483.58635,-0.0904932636154197,0.0072993118679988,0.856697940533111,0.465489447116852,0.154714405536652,0.0286270976066589,B
1526528483.59731,-0.0942426331797807,0.00364978801248473,0.854521888454212,0.461427390575409,0.143939077854156,0.0314444303512573,B
1526528483.60643,-0.0981014166059922,0.000714249505784059,0.853434078901581,0.456800311803818,0.126309335231781,0.020933210849762,B
1526528483.6171,-0.101282378832196,-0.00217238727454041,0.853222444206249,0.452885180711746,0.106592267751694,0.0128020048141479,B
1526528483.62664,-0.102965654185682,-0.00557994636405653,0.853814655417559,0.436247766017914,0.0916033089160919,0.012556254863739,B
1526528483.63671,-0.102901859033833,-0.0100534281637242,0.854963895376999,0.416817337274551,0.0796073824167252,0.00528007745742798,B
1526528483.64705,-0.10122486933342,-0.0157762297236139,0.856531823016672,0.409007668495178,0.0478077977895737,-0.00161111354827881,B
1526528483.65678,-0.0984324998726114,-0.0224432705133318,0.858436153211771,0.404233366250992,0.0113720875233412,-0.013071596622467,B
1526528483.66745,-0.0943958654917151,-0.029297080567428,0.860607773968319,0.380790591239929,-0.0122030451893806,-0.021099328994751,B
1526528483.67687,-0.0898335789353544,-0.0358096294845685,0.86279276672326,0.368814826011658,-0.0452013909816742,-0.0190598964691162,B
1526528483.68696,-0.0854341157572266,-0.0419800433769188,0.86455224926689,0.372227072715759,-0.0705321654677391,-0.0183495879173279,B
1526528483.69727,-0.081863845976412,-0.0478665132369747,0.866029724039055,0.373945623636246,-0.0758023411035538,-0.0226790308952332,B
1526528483.70719,-0.0788571504680266,-0.0532827320505782,0.867766123092008,0.362339794635773,-0.0801129937171936,-0.0357571840286255,B
1526528483.71726,-0.0755937725699201,-0.057964231220474,0.870198022822181,0.353288024663925,-0.086267352104187,-0.0507494211196899,B
1526528483.72725,-0.0715747022647582,-0.0620590702117238,0.873383361595707,0.34725484251976,-0.0931776911020279,-0.0770818591117859,B
1526528483.73741,-0.0658637340067543,-0.065959078076653,0.877380392840984,0.326628804206848,-0.107674568891525,-0.105381786823273,B
1526528483.74728,-0.0585576547496553,-0.0699269039968685,0.88222678614615,0.309418767690659,-0.132736146450043,-0.11836576461792,B
1526528483.75739,-0.0494851391490709,-0.0736983731318681,0.888205586850622,0.270491570234299,-0.133430868387222,-0.127974033355713,B
1526528483.76748,-0.0387133425708451,-0.0766990952075257,0.894985472979863,0.222229421138763,-0.134057998657227,-0.116968274116516,B
1526528483.77742,-0.0267897427531393,-0.0786252057804456,0.902252539395356,0.198487237095833,-0.139030069112778,-0.104292452335358,B
1526528483.78769,-0.0145566081482747,-0.0796195306515661,0.909787335601562,0.171629726886749,-0.162161782383919,-0.090126633644104,B
1526528483.79769,-0.00289205010283893,-0.0797909215159776,0.917396877089267,0.138411402702332,-0.148416608572006,-0.0759244561195374,B
1526528483.80783,0.00776020677374135,-0.0792534014053445,0.924935237398078,0.0961460620164871,-0.141212701797485,-0.0497387647628784,B
1526528483.81783,0.0178531216576303,-0.0782581086087205,0.932403927218431,0.026071485131979,-0.124702297151089,-0.0475310087203979,B
1526528483.8283,0.0281991712687257,-0.0767842591120909,0.939920774637821,-0.0655421614646912,-0.0895719900727272,-0.0461742877960205,B
1526528483.83867,0.0386321395620837,-0.0748084688167708,0.947904712463756,-0.143418684601784,-0.0849468484520912,-0.0307473540306091,B
1526528483.84841,0.0480224551215554,-0.0725862924825118,0.95609147825916,-0.182719513773918,-0.0672277733683586,-0.0280598402023315,B
1526528483.85851,0.0558571531470974,-0.0703226428790355,0.964056532977404,-0.196101501584053,-0.0574015378952026,-0.0156698822975159,B
1526528483.86891,0.0619493554925254,-0.0682239789241922,0.971390877699654,-0.212308928370476,-0.0603585690259933,-0.0111066102981567,B
1526528483.87812,0.0669031280918255,-0.0664368913040896,0.978186549122757,-0.253824263811111,-0.0422028452157974,-0.0191020965576172,B
1526528483.88802,0.0709190129023745,-0.0648658837714739,0.984629107249351,-0.30587899684906,-0.023133397102356,-0.0300173759460449,B
1526528483.89905,0.0737838833044166,-0.0633076593047016,0.990889747848832,-0.350851982831955,-0.00169616192579269,-0.0380591154098511,B
1526528483.90847,0.0755181748285633,-0.061780109856224,0.997166256665994,-0.376907706260681,0.00905995815992355,-0.0556100606918335,B
1526528483.91848,0.0766623607179786,-0.0602534236767763,1.00316688259232,-0.376863360404968,-0.00182158499956131,-0.0625773072242737,B
1526528483.92888,0.0776474299790708,-0.058740560897649,1.00842341872768,-0.363583713769913,-0.00145580619573593,-0.0557427406311035,B
1526528483.93926,0.0787243101490253,-0.0574511680469223,1.01263666079561,-0.346442341804504,-0.00750807300209999,-0.0460932850837708,B
1526528483.94905,0.0798112959771164,-0.0563001113846743,1.0158566737443,-0.323481500148773,-0.0173299387097359,-0.0344715118408203,B
1526528483.95897,0.0806076880775589,-0.0549827939143096,1.01834583394566,-0.306854426860809,-0.0212636925280094,-0.0203936100006104,B
1526528483.97232,0.0808282634730019,-0.0531294157826745,1.02053786120896,-0.285109400749207,-0.0247230753302574,-0.00753992795944214,B
1526528483.97923,0.0802229794893922,-0.0501219654535204,1.02286139331921,-0.275425106287003,-0.0347201228141785,0.00349712371826172,B
1526528483.98939,0.0803524467363527,-0.0462405321330616,1.02458712136744,-0.247340247035027,-0.0319876074790955,-0.00301027297973633,B
1526528484.00459,0.0808977783768184,-0.0416089739902345,1.02548881726276,-0.232350945472717,-0.0549941882491112,-0.0204753279685974,B
1526528484.00957,0.0823774089720771,-0.0365849542152051,1.02488071776343,-0.215087488293648,-0.0728774517774582,-0.0292350053787231,B
1526528484.02022,0.0849396996565243,-0.0316859311933381,1.02247180670292,-0.175218597054482,-0.091403529047966,-0.0477607846260071,B
1526528484.02951,0.0880846585969293,-0.0272723927432507,1.01843946198935,-0.150361776351929,-0.113221772015095,-0.0360620021820068,B
0,0,0,0,0,0,0,0,0
1526528484.7105,0.0140760916092178,0.084670118496994,0.934524179469627,-0.0227684900164604,0.29778003692627,0.0661430954933167,B
1526528484.71381,0.0120712909849716,0.0848343299113403,0.935224793481992,-0.0122717283666134,0.292419970035553,0.0517815351486206,B
1526528484.72326,0.00977286050562868,0.0833537968000109,0.935594978112576,-0.0186804234981537,0.296590447425842,0.0403037071228027,B
1526528484.73334,0.00790640386862296,0.0811306616194687,0.935397607872665,-0.0354529470205307,0.305406928062439,0.055288553237915,B
1526528484.74327,0.00649168393572188,0.0788809752515095,0.934835199429551,-0.0193651281297207,0.304598748683929,0.0364050269126892,B
1526528484.75338,0.00587673555737251,0.0771242410252733,0.934747952577384,-0.000121928751468658,0.283850163221359,0.0621652007102966,B
1526528484.76401,0.00560711158618769,0.0757818752485987,0.935596368646385,0.00315229594707489,0.286738395690918,0.0759716629981995,B
1526528484.77347,0.00555929619729732,0.0743533129548586,0.937556819486403,-0.00491829961538315,0.282429963350296,0.0797411799430847,B
1526528484.78365,0.00542046887615651,0.0725283472702428,0.940478744881597,-0.00978546217083931,0.252014935016632,0.0743521451950073,B
1526528484.79404,0.0052782877318503,0.0709477265696705,0.944034537804625,-0.0297095645219088,0.225566565990448,0.0631594657897949,B
1526528484.80525,0.00502330413989126,0.0702668757510304,0.947631891372386,-0.0541441887617111,0.202762171626091,0.0623695254325867,B
1526528484.81427,0.00452613867025917,0.070215255642827,0.950727998588795,-0.0596297159790993,0.180264994502068,0.049619197845459,B
1526528484.82418,0.00363544982405072,0.0701340303207918,0.952796203240153,-0.0557963028550148,0.162987321615219,0.0235359668731689,B
1526528484.83675,0.00279178229377363,0.0694798539850402,0.953540190859773,-0.0552294999361038,0.171184837818146,-0.00679594278335571,B
1526528484.84455,0.00290759174624988,0.0679017852652083,0.953270562271548,-0.0479600913822651,0.181695446372032,-0.0421035885810852,B
1526528484.85445,0.00480245972151973,0.0653844827159844,0.952390342293092,-0.0197000168263912,0.177108526229858,-0.0531737208366394,B
1526528484.86507,0.00832701704514049,0.062148224202603,0.951405681134348,0.0129446480423212,0.185887515544891,-0.0470091700553894,B
1526528484.87464,0.0129579273257455,0.058400228138069,0.950730777171176,0.0250131320208311,0.209169656038284,-0.0251955986022949,B
1526528484.88489,0.0176283566749831,0.0541927261342438,0.950533389720878,0.0371774882078171,0.231381773948669,-0.00996977090835571,B
1526528484.89485,0.0216356610107164,0.0499421567389699,0.950870603148659,0.0489954203367233,0.24639356136322,0.000808179378509521,B
1526528484.90564,0.0247682002834345,0.0461289842844406,0.95172487059647,0.0550336241722107,0.247543901205063,0.0251191258430481,B
1526528484.91484,0.0268679320599961,0.042653546860055,0.953015774607592,0.0687255337834358,0.2493666857481,0.0410730242729187,B
1526528484.92489,0.0281818879107414,0.0391538387847756,0.954909222232025,0.0779225379228592,0.217366486787796,0.0500605702400208,B
1526528484.93864,0.0286260765843493,0.0352583194852188,0.957301803471612,0.0904599577188492,0.184756636619568,0.0466527342796326,B
1526528484.945,0.028658438218982,0.0310044937929751,0.959957866531714,0.0853424072265625,0.160271987318993,0.0336548686027527,B
1526528484.95509,0.0285967751585196,0.02662951564819,0.962632922597066,0.0656097680330276,0.135329976677895,0.00985687971115112,B
1526528484.966,0.028866906613586,0.0224200648115149,0.965117823631807,0.0538012161850929,0.11687009036541,-0.0149806141853333,B
1526528484.97527,0.0298894894775331,0.0185418400124329,0.967327731327884,0.0426908992230892,0.0970014706254005,-0.022575855255127,B
1526528484.98691,0.0314713646341538,0.0149597661117002,0.969363266248477,0.0298929437994957,0.0882471725344658,-0.0172543525695801,B
1526528484.99529,0.0330034947501534,0.0113114125603579,0.97154630844258,0.0325105898082256,0.0878492593765259,0.00352662801742554,B
1526528485.00581,0.0340139811188345,0.00752302950406895,0.974442777039665,0.037419930100441,0.0848697572946548,0.0269506573677063,B
1526528485.01534,0.0347377346473288,0.00391551476059837,0.978343746215327,0.0291122905910015,0.0759064704179764,0.0516504049301147,B
1526528485.02545,0.0357623031081122,0.0003489737738464,0.983040401289677,0.0196499861776829,0.0615519769489765,0.0707563757896423,B
1526528485.03589,0.0369412036598531,-0.00365430477302634,0.98793475581177,0.000985536724328995,0.0286638177931309,0.0593849420547485,B
1526528485.0452,0.0388463460208094,-0.0083935791881318,0.99190646631007,-0.0209671668708324,-0.0154888182878494,0.0408058166503906,B
1526528485.05526,0.0413270750085765,-0.0142529654753612,0.994592019319928,0.006235271692276,-0.0649574398994446,0.040701150894165,B
1526528485.06621,0.0447035208944726,-0.0219774323728641,0.996264205099139,0.0148924738168716,-0.104159504175186,0.0246385931968689,B
1526528485.07592,0.048957698735457,-0.0315490141777168,0.997739662924506,0.0188352316617966,-0.122211501002312,0.0196823477745056,B
1526528485.08569,0.0533778016686504,-0.0419529405493447,1.00026882084151,0.00336562842130661,-0.154153764247894,0.0231944918632507,B
1526528485.09602,0.0573103991263432,-0.051946892171273,1.00448582006158,-0.0233425125479698,-0.197034612298012,0.0186484456062317,B
1526528485.10642,0.0602158504816673,-0.0609981250859719,1.0099577566456,-0.0439542606472969,-0.255509853363037,0.000130534172058105,B
1526528485.11601,0.0623552946073632,-0.0689435681962483,1.01591239885646,-0.0704371184110641,-0.316493332386017,-0.0283166170120239,B
1526528485.12621,0.0637762544352876,-0.0760100377883944,1.02165679808589,-0.0787467584013939,-0.399438440799713,-0.0443585515022278,B
1526528485.13796,0.0641528588638085,-0.0825247018748224,1.02639626611737,-0.0670645087957382,-0.473696947097778,-0.05910325050354,B
1526528485.14593,0.0638218160468278,-0.0891403338342095,1.02940317871841,-0.0749235898256302,-0.491045653820038,-0.0876938104629517,B
1526528485.1559,0.0631526175520357,-0.0963283382161256,1.03060951701847,-0.0704779773950577,-0.51298850774765,-0.135221362113953,B
1526528485.16907,0.0620694225073593,-0.104035445518815,1.03030143969778,-0.0436583012342453,-0.525707602500916,-0.180249989032745,B
1526528485.17639,0.0606556237576955,-0.111515596280342,1.029195938912,-0.0125734470784664,-0.537905097007751,-0.223157465457916,B
1526528485.18711,0.0593039032543401,-0.117624008784019,1.02801628165338,0.00914881005883217,-0.548657894134521,-0.264926970005035,B
1526528485.19659,0.0581535905084474,-0.121450611559376,1.02732522213874,0.0253151245415211,-0.558225035667419,-0.303553998470306,B
1526528485.20644,0.0574671275844625,-0.122265855504198,1.02756946271752,0.0403748638927937,-0.57270610332489,-0.322931230068207,B
1526528485.21667,0.0571725798772749,-0.11968767827606,1.02906060180788,0.0437770038843155,-0.585664927959442,-0.315462708473206,B
1526528485.22677,0.0572563940344251,-0.113868270073768,1.03150040890184,0.0368344411253929,-0.599004447460175,-0.269380390644073,B
1526528485.23846,0.057131320460288,-0.105816489000056,1.03456874187223,0.0369538776576519,-0.600446403026581,-0.198759436607361,B
1526528485.24724,0.056207710629699,-0.0968781294333994,1.03799171269032,0.0201198495924473,-0.583115816116333,-0.133244574069977,B
1526528485.25701,0.0541013212121574,-0.0883676060178248,1.04150169236634,-0.00904887542128563,-0.552730202674866,-0.0901982188224792,B
1526528485.27161,0.0510550219866414,-0.0809257940158768,1.04467318561308,-0.0417258106172085,-0.519466638565063,-0.0822845101356506,B
1526528485.27706,0.0480565978971826,-0.0741989418175307,1.04678535835656,-0.0819025039672852,-0.488757967948914,-0.107693135738373,B
1526528485.28743,0.0457021723623477,-0.0673389571780339,1.04689110693108,-0.100254960358143,-0.474499374628067,-0.138791024684906,B
1526528485.29848,0.0432868016941281,-0.0594287773603466,1.04516120792239,-0.0726768672466278,-0.456595331430435,-0.154113411903381,B
1526528485.30725,0.0407777645803054,-0.0498507339176277,1.04284882378498,-0.0474296882748604,-0.426020264625549,-0.14385724067688,B
1526528485.31781,0.0379196817575112,-0.0382541606890131,1.04120042824518,-0.0244398675858974,-0.387686371803284,-0.111221671104431,B
1526528485.32741,0.034282411203422,-0.024751409489305,1.04067149041113,-0.0105072632431984,-0.358870595693588,-0.0481806993484497,B
1526528485.33868,0.0296380133631706,-0.0102249188343775,1.04089110559921,-0.0171199180185795,-0.319764524698257,0.0157591700553894,B
1526528485.34754,0.024790825124471,0.00399059153884189,1.04109970450562,-0.0585557892918587,-0.266959726810455,0.041341245174408,B
1526528485.35782,0.0208672665100973,0.0165775815780615,1.0398564968135,-0.117115326225758,-0.225015580654144,0.0360676646232605,B
1526528485.37583,0.0185622561114442,0.0264393794882773,1.03588080279041,-0.139297500252724,-0.18192246556282,0.0132569670677185,B
1526528485.37721,0.0184894159417452,0.0327656462590989,1.02944483610874,-0.153930708765984,-0.129181742668152,-0.0436610579490662,B
1526528485.38719,0.0204098718597283,0.0357933463724995,1.02185718335822,-0.16326342523098,-0.076869934797287,-0.104532122612,B
1526528485.39745,0.0239174793657644,0.037061508204691,1.01422085890086,-0.147739112377167,-0.0351820811629295,-0.136104345321655,B
1526528485.40744,0.0288032780681477,0.0381686567042227,1.00758029814954,-0.117859125137329,-0.000338532030582428,-0.139890968799591,B
1526528485.4175,0.0342121646780077,0.0401442703394264,1.00296148507526,-0.102094799280167,0.0225248485803604,-0.114107072353363,B
1526528485.42786,0.0390080429315622,0.0437573536742704,1.000705498093,-0.104787237942219,0.0568964704871178,-0.0579458475112915,B
1526528485.43851,0.0420467288401413,0.0492519399831111,0.999808745135911,-0.156409025192261,0.0906748995184898,-0.00430792570114136,B
1526528485.44807,0.0435137871681348,0.0563497377967743,0.997352338842587,-0.223652571439743,0.130309790372849,0.00152653455734253,B
1526528485.45808,0.0443987575785463,0.0647637190960218,0.990740267156388,-0.289469361305237,0.123342722654343,0.00535827875137329,B
1526528485.46862,0.0434709507333755,0.0740113737507639,0.979309430340748,-0.285876750946045,0.131850928068161,0.031949520111084,B
1526528485.47832,0.0406215056887478,0.083592259384237,0.965294714923073,-0.272173225879669,0.187895566225052,0.0512128472328186,B
1526528485.48824,0.0366748781502661,0.0926438808728309,0.951329996547242,-0.264857202768326,0.25243878364563,0.0562145113945007,B
1526528485.49875,0.0326701555530397,0.10052138543147,0.939229121889489,-0.224226132035255,0.303339838981628,0.0609645843505859,B
1526528485.50843,0.0302772781443692,0.106858725709235,0.930059175740095,-0.19298754632473,0.327358603477478,0.0931292176246643,B
1526528485.51845,0.0300534622332644,0.110957379690425,0.923947577956033,-0.185473293066025,0.34249559044838,0.137520968914032,B
1526528485.52848,0.0320208222177936,0.111784288955845,0.919723774599271,-0.218018531799316,0.362924933433533,0.157113313674927,B
1526528485.54004,0.0357718891127379,0.109729875781272,0.915166576526509,-0.287883758544922,0.355832427740097,0.159548461437225,B
1526528485.54856,0.0392319442673218,0.106667690055889,0.907767198962007,-0.321576476097107,0.336491763591766,0.178594589233398,B
1526528485.55863,0.0399932904758106,0.104571964824065,0.896589474694385,-0.312881290912628,0.342494904994965,0.190931379795074,B
1526528485.56899,0.0372980940662986,0.104230321069211,0.882812821933377,-0.295052170753479,0.381690621376038,0.18466180562973,B
1526528485.5784,0.032105913186385,0.104920547830803,0.868550783806935,-0.253374665975571,0.427283704280853,0.157440483570099,B
1526528485.58841,0.0259341634317786,0.105463417585514,0.855791207281676,-0.190658390522003,0.464704066514969,0.126372635364532,B
1526528485.60612,0.0200899423190081,0.105484386282661,0.845791166946205,-0.142291381955147,0.479739546775818,0.115548312664032,B
1526528485.60935,0.0159978768160116,0.104973891669786,0.838232864789131,-0.130227982997894,0.495955526828766,0.112028539180756,B
1526528485.61903,0.0146024280287849,0.103648739025233,0.831692954736621,-0.134594947099686,0.483910650014877,0.0963490605354309,B
1526528485.62906,0.0150499235515558,0.101656852109549,0.82478672786959,-0.106768533587456,0.438762128353119,0.0972942709922791,B
1526528485.63925,0.0157284278855144,0.0993771220504413,0.817072535602375,-0.0897010862827301,0.420426398515701,0.130730986595154,B
1526528485.64922,0.0151798115222665,0.0969397922075736,0.809116878655775,-0.0605944134294987,0.405885338783264,0.165615737438202,B
1526528485.65925,0.012676365071159,0.0946826887167714,0.801743594694403,-0.0113375075161457,0.382001608610153,0.197635114192963,B
1526528485.67513,0.0086735549860266,0.0928516306516356,0.795282718367077,0.0367130376398563,0.362295299768448,0.223178684711456,B
1526528485.67912,0.00443897262863666,0.0911543200767583,0.789962860109155,0.0870406553149223,0.339242875576019,0.23053389787674,B
1526528485.68907,0.00120656099598476,0.0890195982235051,0.786157545158363,0.124317020177841,0.326405107975006,0.221060991287231,B
1526528485.69923,-0.000155756169998528,0.0856347550087278,0.783491503133657,0.15400955080986,0.31555637717247,0.214978754520416,B
1526528485.70923,0.00135872129339017,0.0799089294170167,0.781454831303154,0.188251331448555,0.303304135799408,0.209912300109863,B
1526528485.71904,0.00577815598381339,0.0706274769515041,0.779296591733379,0.221042916178703,0.290371626615524,0.200508415699005,B
1526528485.7298,0.0117747382363051,0.0577605295449674,0.777235850351149,0.268701702356339,0.256870865821838,0.188769102096558,B
1526528485.73982,0.0177584971584366,0.0431156078602236,0.775332002929558,0.322072178125381,0.214626297354698,0.182888329029083,B
1526528485.74993,0.0222300690553346,0.028744177701859,0.773808949198391,0.362104058265686,0.17948180437088,0.17336642742157,B
1526528485.75997,0.0240602941800046,0.0162242640207839,0.772820151009701,0.395485609769821,0.145892739295959,0.127844393253326,B
1526528485.77215,0.0235302234121012,0.00616911037591031,0.772126692050205,0.413133174180984,0.115513555705547,0.0780580043792725,B
1526528485.78002,0.0218449363304325,-0.00208771452766504,0.771647001008295,0.437095433473587,0.0962551832199097,0.0198550820350647,B
1526528485.79009,0.0209590936945975,-0.00970558069293806,0.771619422280057,0.455026090145111,0.0743094682693481,-0.0372845530509949,B
1526528485.80515,0.0221150755950292,-0.0178163613945158,0.772298294611899,0.470382899045944,0.0639564320445061,-0.0896976590156555,B
1526528485.81028,0.0257465357776126,-0.0269705451650144,0.773929663130274,0.478477090597153,0.0549724213778973,-0.133980512619019,B
1526528485.82065,0.0310401455051636,-0.0364157150575865,0.776655831075192,0.496542781591415,0.0297697000205517,-0.162918031215668,B
1526528485.83154,0.0369394735868076,-0.0448747821629344,0.780409664647733,0.504487931728363,0.00236622989177704,-0.165140390396118,B
1526528485.84094,0.042679782994446,-0.0518441802337151,0.784897854031993,0.505928695201874,-0.0254537686705589,-0.164453983306885,B
1526528485.85012,0.0477336230716116,-0.0573354984352201,0.789893146681947,0.502533793449402,-0.050330825150013,-0.155398845672607,B
1526528485.86004,0.0513548747633962,-0.061356497663161,0.795473820119732,0.491702526807785,-0.0647359788417816,-0.13909238576889,B
1526528485.87022,0.0537156660613791,-0.0640397805713641,0.801980457508406,0.473916560411453,-0.075333297252655,-0.120844602584839,B
1526528485.88029,0.0557033527106786,-0.0659216234334939,0.809519481534175,0.440570652484894,-0.0824144184589386,-0.122829854488373,B
1526528485.89009,0.058150324246162,-0.067504965213182,0.817982340122374,0.393110394477844,-0.0947059020400047,-0.123196184635162,B
1526528485.9018,0.0614844382345308,-0.0692408699791182,0.827230752898629,0.346599489450455,-0.106569588184357,-0.119149446487427,B
1526528485.91072,0.066239754063258,-0.071466521932127,0.837108846296392,0.281420260667801,-0.111765198409557,-0.12554395198822,B
1526528485.92088,0.071948022479308,-0.0738842444385453,0.847704133631859,0.221873998641968,-0.124506734311581,-0.117414653301239,B
1526528485.93164,0.0778042311022551,-0.0760740555336594,0.859029077026476,0.161970481276512,-0.134808078408241,-0.0897100567817688,B
1526528485.94111,0.0827043739533246,-0.0777250178997206,0.870817541381805,0.0890107452869415,-0.140833422541618,-0.070559561252594,B
1526528485.95125,0.085985285591821,-0.0785390716139253,0.882399564159877,0.0250573605298996,-0.15311960875988,-0.0518249273300171,B
1526528485.96123,0.0877691065643844,-0.0786237101224879,0.893406761143478,-0.0329117923974991,-0.156072646379471,-0.0399314165115356,B
1526528485.97277,0.0887707408671238,-0.0782623686461729,0.903898027546163,-0.104129895567894,-0.15162305533886,-0.0448893308639526,B
1526528485.98068,0.0895783725998342,-0.0779894201114835,0.913885019946763,-0.182402640581131,-0.141661614179611,-0.0608242154121399,B
1526528485.99084,0.0906889277625025,-0.0781570054412161,0.923257450400093,-0.260561019182205,-0.136427074670792,-0.0845879912376404,B
1526528486.00158,0.0921182665472479,-0.0784371898613816,0.931899773849788,-0.325393557548523,-0.136355444788933,-0.0981065630912781,B
1526528486.01094,0.0935560939415989,-0.0785687233766225,0.939734411224914,-0.384116590023041,-0.134945422410965,-0.104093849658966,B
1526528486.02102,0.0944937596880454,-0.0781997591586646,0.946862677222891,-0.442712903022766,-0.129191249608994,-0.111004054546356,B
1526528486.0318,0.0944246704031725,-0.0771081292521358,0.953003019196886,-0.495234131813049,-0.12457812577486,-0.113873481750488,B
1526528486.04162,0.0931457127063223,-0.0753934475903463,0.957722085174787,-0.546222805976868,-0.119130030274391,-0.123847365379333,B
1526528486.05185,0.090611696633184,-0.0731051404496099,0.960877377145279,-0.592107653617859,-0.0992851555347443,-0.130358695983887,B
1526528486.06163,0.0866749911593979,-0.0701706177969656,0.962546783384724,-0.61957186460495,-0.0744312852621078,-0.129420399665833,B
1526528486.0732,0.0817025292514257,-0.0665817508428232,0.962790948501446,-0.632440984249115,-0.0523876696825027,-0.126882076263428,B
1526528486.08187,0.0765126063725275,-0.0626028544980079,0.961528832801478,-0.630563735961914,-0.0294809192419052,-0.119945406913757,B
1526528486.09187,0.0724756443858801,-0.0589672292719091,0.958886024723018,-0.612722158432007,-0.0090368241071701,-0.102991580963135,B
1526528486.10534,0.0700873327861593,-0.0565838546517349,0.955118598426955,-0.593202829360962,0.0142471119761467,-0.0828633308410645,B
1526528486.11199,0.0684990647158542,-0.0555789578122154,0.950428705724094,-0.573878765106201,0.043250311166048,-0.0662330985069275,B
1526528486.12205,0.0666394476911255,-0.0550359139762733,0.944952187663525,-0.539893269538879,0.0619352236390114,-0.0401988625526428,B
1526528486.13228,0.0632075079732902,-0.0538074419669996,0.938755331750492,-0.507745623588562,0.0714931786060333,-0.0116047859191895,B
1526528486.14224,0.0581310980325879,-0.051557774441134,0.931878943026489,-0.464332193136215,0.0932099372148514,0.00212651491165161,B
1526528486.15383,0.0525519231831844,-0.048781549867231,0.924249436087983,-0.422887623310089,0.0985766649246216,0.00800585746765137,B
1526528486.16229,0.0470567763343934,-0.046464223689748,0.915567047058302,-0.378638416528702,0.109939821064472,0.0133636593818665,B
1526528486.17241,0.0417569647166437,-0.0451233480023327,0.905900630800193,-0.335754454135895,0.128857418894768,0.0168796181678772,B
1526528486.18238,0.0363562925827676,-0.0444391832339394,0.895569951062421,-0.289928734302521,0.143121212720871,0.032684862613678,B
1526528486.19251,0.0303297590771487,-0.0438015532125811,0.884829728576442,-0.234534919261932,0.162175595760345,0.0486149787902832,B
1526528486.20532,0.0230453768929965,-0.0427201171984191,0.874195688485686,-0.183849945664406,0.180345863103867,0.0625277757644653,B
1526528486.21274,0.0146079547976961,-0.0411065422848548,0.863900680756865,-0.137031614780426,0.184735119342804,0.0755104422569275,B
1526528486.22284,0.00546513539159598,-0.0392062824973842,0.853533438100949,-0.0933057591319084,0.182956472039223,0.081430971622467,B
1526528486.23971,-0.00390898052429648,-0.0374298528520008,0.842709374567026,-0.0517578274011612,0.18135941028595,0.0835662484169006,B
1526528486.24295,-0.0127869628706018,-0.0362364453227224,0.831567743341924,0.00238698534667492,0.179896980524063,0.0889987945556641,B
1526528486.2529,-0.0204992261487926,-0.0361922133466164,0.82055045775628,0.0585397854447365,0.187967300415039,0.0911303758621216,B
1526528486.26282,-0.0272141662192071,-0.0377598175660205,0.810126806595462,0.104828134179115,0.204848647117615,0.077759325504303,B
1526528486.27321,-0.0333695994457133,-0.0403202707512955,0.800430179534325,0.133418679237366,0.222126573324203,0.0604290962219238,B
1526528486.28304,-0.0397638832992716,-0.0427349594270386,0.791169649948706,0.169172674417496,0.222857266664505,0.0559296607971191,B
1526528486.29334,-0.0467198743076154,-0.0442457946072009,0.782186856446537,0.226817697286606,0.201801359653473,0.0525118708610535,B
1526528486.30494,-0.0540666401956346,-0.0448283039732477,0.773930841705396,0.284500539302826,0.18473993241787,0.0475386381149292,B
1526528486.31401,-0.0613515796848631,-0.044694106547386,0.76694389894943,0.318377733230591,0.186796605587006,0.0399379730224609,B
1526528486.32343,-0.0681303627030593,-0.0440810021581895,0.761578405142942,0.332583665847778,0.193024337291718,0.0356360077857971,B
1526528486.34296,-0.0737484102040521,-0.0432268540213933,0.757676641351421,0.344852983951569,0.181228131055832,0.0363739728927612,B
1526528486.3433,-0.0780537625932039,-0.0424314925113629,0.754498131125049,0.353188157081604,0.164307311177254,0.0416054725646973,B
1526528486.35297,-0.0811034131509448,-0.0418991731160542,0.751255703505787,0.349315017461777,0.146345496177673,0.0423011183738708,B
1526528486.36299,-0.0830805871084453,-0.0417871043279697,0.747870057295963,0.355159908533096,0.131946370005608,0.0451650619506836,B
1526528486.37311,-0.0845303371400332,-0.0422541602578538,0.745049245031618,0.366687715053558,0.117197498679161,0.0366777181625366,B
1526528486.38303,-0.0854648752723957,-0.0432509186224914,0.743414723874946,0.360137611627579,0.120870843529701,0.0320851802825928,B
1526528486.39322,-0.0857784867373609,-0.0447196281170869,0.742752188573185,0.363251864910126,0.105441763997078,0.0309564471244812,B
1526528486.40344,-0.0853879875864531,-0.0467061422087782,0.742165973750933,0.385758876800537,0.0624416954815388,0.0308383107185364,B
1526528486.41358,-0.0843714052152143,-0.0489872592993664,0.74132662846803,0.414034754037857,0.0285774990916252,0.0229421257972717,B
1526528486.42362,-0.0827910266957551,-0.0512917727329268,0.740630832465977,0.424491405487061,0.0050203874707222,0.0319309830665588,B
1526528486.43632,-0.0810908827243675,-0.0538641111405758,0.740524212927225,0.433362603187561,-0.00623064860701561,0.0457444190979004,B
1526528486.44413,-0.0799586721570502,-0.0570452714477137,0.741717635660996,0.467072665691376,-0.0093458816409111,0.052678644657135,B
1526528486.45413,-0.0795508526934774,-0.0608814757298469,0.743956616293368,0.470265179872513,-0.0275186784565449,0.0570328235626221,B
1526528486.46523,-0.0790623845839866,-0.0657389250415014,0.74665867840137,0.473035514354706,-0.0582758113741875,0.0393090844154358,B
1526528486.47412,-0.0771487291815263,-0.0722947486679427,0.748831064891127,0.512036323547363,-0.0790066868066788,-0.023797869682312,B
1526528486.48472,-0.0731371179007451,-0.0803460271868222,0.750986722674984,0.520407021045685,-0.10589437186718,-0.0555580854415894,B
1526528486.49431,-0.0674077610291046,-0.0891144964071609,0.753576962921054,0.539654135704041,-0.114555060863495,-0.0863692760467529,B
1526528486.5047,-0.0607630312978401,-0.0971593348320972,0.758112086064221,0.522261738777161,-0.1066043227911,-0.112937390804291,B
1526528486.5144,-0.0540716205646515,-0.103330200419075,0.764663143264448,0.490921318531036,-0.110333308577538,-0.116986572742462,B
1526528486.52443,-0.0473059180351466,-0.107456660127946,0.773203401244032,0.453784316778183,-0.123683698475361,-0.130445897579193,B
1526528486.53503,-0.0397429415673257,-0.110164400773699,0.78262460633587,0.398912400007248,-0.146501764655113,-0.139537274837494,B
1526528486.54468,-0.0310652981559942,-0.112225018761554,0.792625445494145,0.344722956418991,-0.166280373930931,-0.141108512878418,B
1526528486.55463,-0.0216770901474223,-0.114018939158368,0.802857340780749,0.280995100736618,-0.162249222397804,-0.12716418504715,B
1526528486.565,-0.0120080954475518,-0.115465411005619,0.814034465703907,0.216960191726685,-0.158635526895523,-0.117539703845978,B
1526528486.57489,-0.00192681442225781,-0.116260147090705,0.82596173636589,0.144552960991859,-0.153916507959366,-0.105324268341064,B
1526528486.58501,0.00885828696275892,-0.116232271161506,0.838110599006903,0.0619566030800343,-0.157215237617493,-0.0975151658058167,B
1526528486.59509,0.0197512126593251,-0.115543400871406,0.849355487039913,0.00122526474297047,-0.170950546860695,-0.0774181485176086,B
1526528486.60654,0.0304874543102617,-0.11458142732689,0.860003028310686,-0.0492495223879814,-0.171352967619896,-0.0556334853172302,B
1526528486.61491,0.0411779917052385,-0.113963020190838,0.870350300962084,-0.0987453907728195,-0.156761541962624,-0.029423713684082,B
1526528486.62501,0.0518156709313121,-0.11395199644067,0.881022929635053,-0.147510662674904,-0.146206766366959,-0.0139225125312805,B
1526528486.63548,0.0625726139195365,-0.114409540491563,0.891934097031195,-0.192066818475723,-0.141885325312614,0.0109272599220276,B
1526528486.64521,0.0731390247088353,-0.115136386630473,0.902956457612446,-0.239689022302628,-0.133940398693085,0.021256148815155,B
1526528486.65524,0.0829512369867641,-0.11569153733703,0.913004973703595,-0.284603297710419,-0.137299478054047,0.0189523696899414,B
1526528486.67282,0.0915240694730547,-0.115473316720897,0.921100485447599,-0.316266804933548,-0.139493599534035,0.00819522142410278,B
1526528486.67534,0.0987695376481024,-0.114137637252971,0.926510886695308,-0.341024667024612,-0.116560265421867,-0.00542831420898438,B
1526528486.68538,0.104871309774188,-0.112160380671741,0.930728567840133,-0.340013861656189,-0.0765707492828369,-0.0243924260139465,B
1526528486.69544,0.109766189039862,-0.110380384638996,0.935443216093554,-0.342277646064758,-0.0291016846895218,-0.045819878578186,B
1526528486.70561,0.113330185316147,-0.109522897556858,0.941633744149751,-0.345488160848618,0.0230201482772827,-0.0537653565406799,B
1526528486.71556,0.115388542319631,-0.11003899845632,0.94901212578173,-0.338587909936905,0.0401005297899246,-0.0694664120674133,B
1526528486.72562,0.116791020650481,-0.111282056068168,0.956611929862917,-0.348577737808228,0.0384378358721733,-0.0955210328102112,B
1526528486.73603,0.11798910436688,-0.112445416434002,0.963431650333305,-0.340803265571594,0.0150191783905029,-0.10607385635376,B
1526528486.74545,0.119002228974294,-0.112932597852813,0.969076338143307,-0.334945261478424,-0.0021275207400322,-0.120712637901306,B
1526528486.75547,0.119996538346611,-0.112457053406444,0.973639062346936,-0.321650356054306,-0.0167611837387085,-0.110431849956512,B
1526528486.76651,0.121280332144604,-0.11131425514318,0.977436069614705,-0.294672936201096,-0.023895800113678,-0.0835880041122437,B
1526528486.77588,0.123375428792661,-0.109992236222672,0.980617550224326,-0.282200574874878,-0.0178211256861687,-0.0657376050949097,B
1526528486.78718,0.127205382211167,-0.1085915747882,0.983156025327307,-0.271256923675537,-0.0190380662679672,-0.0641543865203857,B
1526528486.79604,0.133688325818862,-0.10669453990364,0.98511538160513,-0.248804464936256,-0.0312663987278938,-0.0650196075439453,B
1526528486.80617,0.141302821469227,-0.104175438131854,0.986785941878578,-0.219567835330963,-0.0427383407950401,-0.0362080931663513,B
1526528486.81616,0.146939458259463,-0.10153168678637,0.988728595075522,-0.200360000133514,-0.0333031341433525,0.00894010066986084,B
1526528486.82632,0.148123851094883,-0.0992431857760626,0.991490982720976,-0.184988290071487,-0.0180104076862335,0.0605073571205139,B
1526528486.84132,0.145487465555796,-0.0977230203903671,0.99518463452069,-0.181255102157593,-0.0315427780151367,0.0732002854347229,B
1526528486.84601,0.141533284431243,-0.097999327544243,0.998556346042329,-0.180530279874802,-0.0930207669734955,0.0841886401176453,B
0,0,0,0,0,0,0,0,0
1526528487.45966,-0.0216789353365501,-0.0329941058156964,0.916435290774306,-0.0101033598184586,0.296861112117767,0.0891714692115784,B
1526528487.46987,-0.0292596777128381,-0.0346065089091953,0.914426423729298,-0.0115334987640381,0.348380744457245,-0.0114940404891968,B
1526528487.47941,-0.0341766941566463,-0.0398189529945961,0.913513815493908,-0.0719666630029678,0.396791309118271,-0.0486478805541992,B
1526528487.48966,-0.0358434927671592,-0.0465591811757027,0.913354971473698,-0.108657971024513,0.399975597858429,-0.0691691637039185,B
1526528487.49974,-0.0348419082789051,-0.0528092511369889,0.913108592413794,-0.0681189745664597,0.384196490049362,-0.119584381580353,B
1526528487.50986,-0.0323007825703796,-0.0571113740014474,0.912389426616529,-0.041060708463192,0.351641595363617,-0.120513617992401,B
1526528487.51983,-0.0295588891883323,-0.0585059500846781,0.911512423222106,-0.0324619263410568,0.338332235813141,-0.111873030662537,B
1526528487.53234,-0.0273975102781464,-0.0569916565355164,0.911010554326582,-0.0430086702108383,0.346298456192017,-0.08216792345047,B
1526528487.53999,-0.025907167691847,-0.0535881746375784,0.911373291915879,-0.0604976639151573,0.364452004432678,-0.0587164163589478,B
1526528487.55005,-0.024624755127877,-0.0497238334072615,0.912629982674083,-0.0666557252407074,0.377207040786743,-0.0363287925720215,B
1526528487.56016,-0.0228265276279629,-0.0470855300147751,0.91431499749585,-0.0873539447784424,0.408238887786865,-0.038264274597168,B
1526528487.57026,-0.0201300264959295,-0.0468082319558021,0.916005828896027,-0.0958601757884026,0.427909791469574,-0.0544898509979248,B
1526528487.58026,-0.0162256268553604,-0.0483914550814314,0.917648695623032,-0.0946186631917953,0.423642814159393,-0.0792745351791382,B
1526528487.59031,-0.0106551399530001,-0.0502537083132299,0.918954639777985,-0.100656121969223,0.410796493291855,-0.0688393115997314,B
1526528487.60224,-0.0040291111014619,-0.0513993349564859,0.920077502157555,-0.0723312050104141,0.378707528114319,-0.0305798649787903,B
1526528487.61043,0.00275784682824492,-0.0515142370853895,0.921337756412562,-0.0538253486156464,0.341224014759064,0.00973224639892578,B
1526528487.62048,0.00972261045249935,-0.0512971394246079,0.92287031159363,-0.0692799836397171,0.340357422828674,0.0423995852470398,B
1526528487.63283,0.0171744181448473,-0.0516760701714655,0.925202286233258,-0.0728452280163765,0.31797581911087,0.0673959851264954,B
1526528487.64064,0.0246731421731901,-0.0533247657845256,0.928737098059038,-0.050377145409584,0.279097974300385,0.0843952298164368,B
1526528487.65077,0.0314963124850535,-0.0563754173260701,0.933159632912754,-0.0597613863646984,0.265004545450211,0.0720738768577576,B
1526528487.66072,0.0368377222647715,-0.0603156876565275,0.937577010901503,-0.081455409526825,0.244316816329956,0.0377112627029419,B
1526528487.67069,0.0411777911363816,-0.0642045044342796,0.940945799098152,-0.0781601965427399,0.193514764308929,-2.24709510803223e-05,B
1526528487.68079,0.0453791689156122,-0.0679396932107195,0.942706931618149,-0.0503248572349548,0.149718150496483,-0.016365110874176,B
1526528487.69088,0.0495861526113075,-0.0719941709704699,0.943491609213003,-0.00837603211402893,0.12447913736105,-0.046006977558136,B
1526528487.70281,0.0541301241320286,-0.0763448703222072,0.944411942320153,0.0225156955420971,0.112587302923203,-0.0394532680511475,B
1526528487.71098,0.0586262066385872,-0.0807144052637777,0.946186800115748,0.0408260375261307,0.137543365359306,-0.0146116614341736,B
1526528487.72107,0.0618280124052108,-0.0850328703387551,0.948851916351459,0.0405464395880699,0.132461532950401,0.0106725692749023,B
1526528487.736,0.0630917990130184,-0.0889191401324961,0.951725649438778,0.0378766357898712,0.127399772405624,0.0129578709602356,B
1526528487.74143,0.0633255246272865,-0.092540610746443,0.954131102096356,0.0175234600901604,0.106504991650581,0.0209927558898926,B
1526528487.75138,0.0637602732447768,-0.096411405148051,0.955893977380594,0.028360441327095,0.0582789033651352,0.00665432214736938,B
1526528487.76141,0.0653461614397256,-0.100978226423399,0.957923536546506,0.0461627319455147,0.00600481033325195,0.003021240234375,B
1526528487.77156,0.068314351957674,-0.106337826688314,0.961402581352457,0.0751754939556122,-0.0505345091223717,0.0205507278442383,B
1526528487.78154,0.0727320537664067,-0.112531490509777,0.966826436447314,0.0753441751003265,-0.0752457976341248,0.040715217590332,B
1526528487.79165,0.0781477373743377,-0.11944687534477,0.974419673801432,0.0650356560945511,-0.132758617401123,0.0512458086013794,B
1526528487.80436,0.0837832799059577,-0.126668761822628,0.983434021034747,0.0269094929099083,-0.209124490618706,0.0581343770027161,B
1526528487.81184,0.0888261522652732,-0.133868559520312,0.9922477944889,-0.0222723856568336,-0.262268513441086,0.0624783635139465,B
1526528487.82181,0.0924960561494946,-0.140690840967775,0.999915406168919,-0.0667628794908524,-0.328535854816437,0.049973726272583,B
1526528487.83652,0.0943448972152109,-0.146776815354017,1.00618728306897,-0.0732335671782494,-0.399408936500549,0.0453034639358521,B
1526528487.84412,0.0952711630681652,-0.152236209871016,1.01100121690037,-0.0803245082497597,-0.435828566551208,0.0346416234970093,B
1526528487.85226,0.0961301508850163,-0.15789418282715,1.01488323974693,-0.0596777200698853,-0.475155800580978,0.0063164234161377,B
1526528487.86195,0.0975652822744889,-0.164468338816936,1.01840726189271,-0.0211143717169762,-0.532120823860168,-0.032254695892334,B
1526528487.87217,0.0996234212246587,-0.171964931931491,1.02139944508694,-0.00953652709722519,-0.5518559217453,-0.0615659952163696,B
1526528487.88219,0.101750403729816,-0.179716675611189,1.02348918941704,-0.00788271427154541,-0.557885944843292,-0.0958710312843323,B
1526528487.89212,0.102815085295572,-0.186536640105106,1.02484789711501,0.0063394233584404,-0.580064296722412,-0.136733651161194,B
1526528487.9021,0.10304475957429,-0.191037539346475,1.02596980664908,0.0194616988301277,-0.600079655647278,-0.172112464904785,B
1526528487.91216,0.102633451372596,-0.192751185366197,1.02714742202906,0.0160516574978828,-0.612916052341461,-0.201708197593689,B
1526528487.92225,0.102268257898836,-0.191855404104038,1.02865377023837,0.0252408310770988,-0.63953310251236,-0.221230864524841,B
1526528487.93215,0.102571899969351,-0.188985006197379,1.03057637186729,0.0300766751170158,-0.664271950721741,-0.1969935297966,B
1526528487.94223,0.103519349935825,-0.185078401581562,1.03271725131741,0.0226520225405693,-0.67566180229187,-0.151353299617767,B
1526528487.95224,0.104786963429278,-0.180788572479508,1.03444293693143,-0.00637877732515335,-0.665477335453033,-0.112391889095306,B
1526528487.96254,0.106388934155321,-0.176616123892209,1.03487614068657,-0.0514053553342819,-0.640405774116516,-0.087665855884552,B
1526528487.97257,0.107225418259776,-0.17285186758045,1.03362246933869,-0.0525383129715919,-0.620997548103333,-0.0796719193458557,B
1526528487.98264,0.106299797389334,-0.168790609510089,1.03125227934303,-0.038979098200798,-0.587515413761139,-0.0825046300888062,B
1526528487.99272,0.103514739573058,-0.16330809853784,1.02828346440214,-0.0287282168865204,-0.53471451997757,-0.078325092792511,B
1526528488.00271,0.0997489406070819,-0.156064647956646,1.02518665621487,-0.00465383380651474,-0.477392345666885,-0.0902297496795654,B
1526528488.01287,0.0958025614823694,-0.147599427770776,1.02247421399524,0.0251502394676208,-0.439483523368835,-0.1120885014534,B
1526528488.02279,0.0922677187524497,-0.138543825933865,1.0203930559308,0.0394070073962212,-0.394769132137299,-0.115082681179047,B
1526528488.03302,0.0894243989702449,-0.129391631836057,1.01937483609737,0.0414461642503738,-0.348879516124725,-0.0963366627693176,B
1526528488.04296,0.0877129178569055,-0.120494891660287,1.01936617999111,-0.00131773948669434,-0.322321444749832,-0.0881698727607727,B
1526528488.05302,0.0867687126215751,-0.111603629752236,1.01910460729687,-0.0411988645792007,-0.304288983345032,-0.0748860836029053,B
1526528488.06321,0.0856958394277877,-0.102044125262733,1.01677527604369,-0.0858781635761261,-0.30075016617775,-0.0586115121841431,B
1526528488.07328,0.0824997510305131,-0.0912722326215256,1.01169756993133,-0.0894026607275009,-0.294819891452789,-0.0161249041557312,B
1526528488.08323,0.0763272424907277,-0.0797432869579297,1.00470061132754,-0.08316720277071,-0.23300963640213,0.0210652947425842,B
1526528488.09325,0.0688159234739787,-0.0691579034985056,0.997326750726523,-0.0989774912595749,-0.129786998033524,0.00225210189819336,B
1526528488.10347,0.0626824958745964,-0.0618481598594546,0.99112200913532,-0.104025587439537,-0.0410872995853424,-0.060924768447876,B
1526528488.11352,0.0591580710486898,-0.0595506190237539,0.987670705966962,-0.118268646299839,0.0366149395704269,-0.131006062030792,B
1526528488.12343,0.0580695967395185,-0.0621826262612475,0.987444270770715,-0.152086779475212,0.0774600952863693,-0.186598420143127,B
1526528488.13391,0.0590471735416673,-0.0674641931632445,0.989009896786959,-0.230784133076668,0.081039734184742,-0.223023056983948,B
1526528488.14352,0.0605056807329047,-0.0716639646062658,0.989401014471786,-0.310405105352402,0.0499488711357117,-0.213391661643982,B
1526528488.15361,0.0606456557021505,-0.0712709167063309,0.98582574814005,-0.316191911697388,0.0095084011554718,-0.168404400348663,B
1526528488.16409,0.0587916616854752,-0.0650243757027228,0.97726388905471,-0.309488117694855,-0.000800102949142456,-0.103202700614929,B
1526528488.17378,0.0556059033982898,-0.0545245577586919,0.96497742803168,-0.312666296958923,0.0423194766044617,-0.0506978631019592,B
1526528488.18397,0.0519864908673017,-0.0427626190488587,0.950812265632456,-0.328130185604095,0.108434498310089,0.00382429361343384,B
1526528488.19406,0.0490083455148377,-0.0330586541419387,0.936482346525345,-0.325497001409531,0.199903309345245,0.0387809276580811,B
1526528488.20412,0.0474728584475826,-0.0274660137969084,0.923548758848287,-0.326611936092377,0.290851026773453,0.0484234094619751,B
1526528488.21397,0.047406463226737,-0.0261845719114256,0.912911222411637,-0.31516420841217,0.363482117652893,0.039824366569519,B
1526528488.2241,0.0485078398556459,-0.0279365452604542,0.904604806736154,-0.3005450963974,0.402242869138718,0.0368403196334839,B
1526528488.2349,0.0501160463141482,-0.0308353795109759,0.897297453206777,-0.327537059783936,0.445579409599304,0.0156952142715454,B
1526528488.24437,0.0517557785372058,-0.0326697807648585,0.889350945932092,-0.340035140514374,0.446507781744003,-0.00857055187225342,B
1526528488.25442,0.0529144160531342,-0.0314949753532896,0.879615752876823,-0.302131086587906,0.397907823324203,0.00271326303482056,B
1526528488.26533,0.053245259390171,-0.026548541764427,0.867850576814918,-0.266061455011368,0.375584691762924,0.0489205718040466,B
1526528488.27512,0.0523196658995532,-0.0186412169959266,0.854941770678383,-0.251642793416977,0.375997930765152,0.121794939041138,B
1526528488.285,0.0500882511581356,-0.01005637187258,0.842042689809201,-0.23690864443779,0.40193110704422,0.188850343227386,B
1526528488.29508,0.0468800340649465,-0.0029454326105419,0.829828903711626,-0.221255362033844,0.444442272186279,0.221797406673431,B
1526528488.30516,0.0434222179884858,0.00145523937929717,0.818545464905522,-0.205365315079689,0.476064622402191,0.233538150787354,B
1526528488.31519,0.0405789642064136,0.00304478273137416,0.808173104058978,-0.177927255630493,0.499214828014374,0.229137361049652,B
1526528488.32521,0.0388864251812078,0.00248927292986122,0.79860021211683,-0.129940956830978,0.495424449443817,0.218479216098785,B
1526528488.33545,0.0379790427946208,0.000798873721661498,0.789776491402289,-0.0798095017671585,0.484822928905487,0.216319561004639,B
1526528488.34564,0.0371777572356119,-0.000903114039855798,0.781672033534757,-0.046065054833889,0.468838721513748,0.216486930847168,B
1526528488.35536,0.0358399925205707,-0.00191829597004693,0.774089844244845,-0.00151523575186729,0.442921191453934,0.227474868297577,B
1526528488.36582,0.033788173463405,-0.00213817882060819,0.766987403086174,0.0415357165038586,0.436216324567795,0.236289143562317,B
1526528488.37505,0.031051263636675,-0.00194462767730823,0.760529951279172,0.0809685587882996,0.422844797372818,0.241093218326569,B
1526528488.38519,0.027677736848932,-0.00187234313954971,0.755004043083655,0.136434122920036,0.413304060697556,0.241299211978912,B
1526528488.39538,0.0239141380893296,-0.00252588399072065,0.750578958485403,0.190886199474335,0.412711560726166,0.24504166841507,B
1526528488.4054,0.0197465505720573,-0.00455974969956463,0.747175387989873,0.253631412982941,0.414934903383255,0.233742415904999,B
1526528488.41546,0.0153854027398662,-0.0081140159695601,0.744869502026899,0.328930288553238,0.396243989467621,0.212785124778748,B
1526528488.42552,0.0111689399628756,-0.0132032439139721,0.743602952424591,0.391511708498001,0.355571568012238,0.192279040813446,B
1526528488.43607,0.00691699314240167,-0.0198133146715363,0.743235843942082,0.46604585647583,0.305490106344223,0.156548619270325,B
1526528488.44596,0.00219287597036753,-0.0273422632157469,0.743789746761533,0.542622983455658,0.242161870002747,0.111074030399323,B
1526528488.45605,-0.00261306413581206,-0.0344679153419123,0.745219462506375,0.596620917320251,0.184487268328667,0.0686928033828735,B
1526528488.46691,-0.00620391304076444,-0.0403882324444006,0.747325698609195,0.648059785366058,0.135159850120544,0.0310866832733154,B
1526528488.47634,-0.00794006582531802,-0.0457169618648632,0.750143081955964,0.681378364562988,0.109877578914165,-0.0195547342300415,B
1526528488.48619,-0.00798494488709223,-0.051275608426733,0.754033552960611,0.68692946434021,0.0796977877616882,-0.0722079873085022,B
1526528488.49615,-0.00677069309698086,-0.0571775467819556,0.759327983530327,0.689285218715668,0.0445686914026737,-0.105157434940338,B
1526528488.50641,-0.00470241037245815,-0.0629507576346698,0.766229711647045,0.687279760837555,-0.00665003806352615,-0.121819078922272,B
1526528488.51633,-0.00199365063611303,-0.0679579193560063,0.774694365075487,0.667867362499237,-0.0562173873186111,-0.129812657833099,B
1526528488.52652,0.00128314788087952,-0.0719176098581015,0.784452999694555,0.63572883605957,-0.0954152047634125,-0.135825514793396,B
1526528488.53759,0.00534288363867284,-0.0747484282704066,0.79523160864997,0.597378969192505,-0.137514531612396,-0.139723718166351,B
1526528488.54682,0.0107162209101093,-0.076634246076282,0.806373000724216,0.54517787694931,-0.173589900135994,-0.133607447147369,B
1526528488.55658,0.0173502619622497,-0.0780957213528985,0.817343028797021,0.480643540620804,-0.193891614675522,-0.128670990467072,B
1526528488.56785,0.0249381247330892,-0.0793063231296092,0.82822504873834,0.392821669578552,-0.216033518314362,-0.134388744831085,B
1526528488.57644,0.033072659640267,-0.0798541417817294,0.839033816811069,0.299436211585999,-0.240947887301445,-0.130776464939117,B
1526528488.58634,0.0411732477727958,-0.0792321980218492,0.849722344346159,0.235807731747627,-0.2608662545681,-0.106276988983154,B
1526528488.59831,0.0488175466410406,-0.0775687551669095,0.860535084340343,0.163155823945999,-0.251822650432587,-0.0778031349182129,B
1526528488.60696,0.0557796026617798,-0.0753530542696194,0.871690185615553,0.0801191926002502,-0.234797149896622,-0.05796217918396,B
1526528488.61715,0.0622085449513659,-0.0731114670731313,0.883125454130438,0.000787567347288132,-0.22899118065834,-0.0375748872756958,B
1526528488.62707,0.0678430919886624,-0.0712314532222677,0.894483003934093,-0.0706403851509094,-0.219257771968842,-0.0203182101249695,B
1526528488.6379,0.0725067259391441,-0.0697737829097721,0.905397590008006,-0.160111784934998,-0.200637593865395,-0.0121038556098938,B
1526528488.64757,0.0763852560315756,-0.0687667086869953,0.915681002269107,-0.261021375656128,-0.177095711231232,-0.0185782313346863,B
1526528488.65719,0.0796402772851431,-0.0681755675498749,0.925031874682822,-0.345988124608994,-0.157234102487564,-0.0458600521087646,B
1526528488.66848,0.0826778016465872,-0.0677214065842719,0.933371886211766,-0.428982466459274,-0.137753278017044,-0.0737239718437195,B
1526528488.67737,0.0854275927770747,-0.0671699454935946,0.940634531597342,-0.49284616112709,-0.126125186681747,-0.0849798917770386,B
1526528488.68744,0.0874911438119019,-0.0664533300817955,0.946743413066264,-0.54084575176239,-0.110990613698959,-0.0903437733650208,B
1526528488.69873,0.0885450217093126,-0.0654918279758832,0.951612526275522,-0.581464886665344,-0.0933686047792435,-0.0865584015846252,B
1526528488.70758,0.0888495747121969,-0.0643532989233411,0.955124443008908,-0.609362006187439,-0.0704734474420547,-0.0761052370071411,B
1526528488.71798,0.0885852569859158,-0.0635791047809429,0.957188239053518,-0.633304119110107,-0.0352770015597343,-0.0750712752342224,B
1526528488.72746,0.0874698080820622,-0.0634390078928624,0.9579817432723,-0.648767054080963,-0.00843431055545807,-0.0982952117919922,B
1526528488.7389,0.0855746006865231,-0.0633776533825915,0.957690851037028,-0.661485731601715,0.014911837875843,-0.0986009240150452,B
1526528488.74731,0.0829626077817607,-0.0626894841611359,0.9563424259955,-0.65385639667511,0.0285380929708481,-0.0813400149345398,B
1526528488.75763,0.0801196205928527,-0.0612135775947685,0.954048668258277,-0.639042377471924,0.0471315309405327,-0.0656827688217163,B
1526528488.77211,0.0772264386844824,-0.0592554916614066,0.951078980084253,-0.616259932518005,0.054930180311203,-0.0550538301467896,B
1526528488.77792,0.0747569844085234,-0.0572700498320374,0.94737944335266,-0.589335441589355,0.0553863719105721,-0.0312376022338867,B
1526528488.78796,0.0726243949538858,-0.055795140301969,0.942663400070058,-0.564680933952332,0.0678605139255524,0.000420093536376953,B
1526528488.79938,0.0703421470796448,-0.0551510886186815,0.936842562633331,-0.528734445571899,0.0732185393571854,0.0288166999816895,B
1526528488.80775,0.0673474373377356,-0.0551200622749611,0.929953339909095,-0.487818121910095,0.0750958323478699,0.0573139190673828,B
1526528488.81939,0.0634445868668623,-0.0552074472856059,0.922070795056988,-0.4441037774086,0.0916559174656868,0.0861740112304688,B
1526528488.82792,0.058296816825097,-0.055244354607812,0.91328432988188,-0.389733135700226,0.106740534305573,0.101316154003143,B
1526528488.83802,0.0518310883983058,-0.0552960605168319,0.903729944530711,-0.335084408521652,0.126830503344536,0.097213089466095,B
1526528488.84799,0.0443333348502453,-0.0553926464916257,0.893530624399432,-0.288666129112244,0.144647881388664,0.0923948287963867,B
1526528488.85796,0.0360553518041289,-0.05568119266165,0.882702500016,-0.245052337646484,0.164089396595955,0.0766739845275879,B
1526528488.86856,0.0271871119236622,-0.0559839467801733,0.87119855212562,-0.186214044690132,0.168914064764977,0.0571005940437317,B
1526528488.87849,0.0184107836937615,-0.0560155700934555,0.859114971152907,-0.107934698462486,0.181303143501282,0.048555314540863,B
1526528488.88857,0.00966855091096728,-0.0559537031693976,0.846844981920003,-0.0491430163383484,0.215620905160904,0.0340786576271057,B
1526528488.89959,0.00116295088905059,-0.0560584961163718,0.835185118259531,0.0048966147005558,0.238389194011688,0.0106507539749146,B
1526528488.90878,-0.00680628998508921,-0.0564007053884071,0.824509861590271,0.0618643835186958,0.242548868060112,0.00226247310638428,B
1526528488.91865,-0.013731125391183,-0.0570981770903096,0.814868877512152,0.114462099969387,0.2352454662323,0.0013737678527832,B
1526528488.92889,-0.0197002444053338,-0.058395623922452,0.80587747500304,0.151653915643692,0.223192736506462,-0.00371408462524414,B
1526528488.93897,-0.0250402833173341,-0.0604284062461743,0.79700048851828,0.197568863630295,0.205645352602005,-0.00514417886734009,B
1526528488.949,-0.0299322375388483,-0.0629829518725825,0.788160092432841,0.244193375110626,0.187608003616333,-0.00288760662078857,B
1526528488.95902,-0.0343863278324928,-0.0655428256004527,0.779548625607404,0.277027279138565,0.175531923770905,0.00963783264160156,B
1526528488.96956,-0.0391455971916212,-0.067779408210476,0.771253287649136,0.322569310665131,0.169790789484978,0.018027126789093,B
1526528488.97912,-0.0445240752973314,-0.0695874664726505,0.763613898004181,0.368544101715088,0.178301930427551,0.0228972434997559,B
1526528488.98919,-0.0504509231392413,-0.0709766338275281,0.757126516511667,0.406824171543121,0.173360899090767,0.0229769349098206,B
1526528488.99978,-0.056331188168896,-0.0721149164546104,0.751849653239858,0.441759914159775,0.162520945072174,0.0205838084220886,B
1526528489.00932,-0.0615456032018579,-0.073333515082747,0.747855828757785,0.480607181787491,0.148869648575783,0.0197007656097412,B
1526528489.02057,-0.0653544800055791,-0.0750196421076742,0.745386891358974,0.499160528182983,0.132112473249435,0.0189842581748962,B
1526528489.02942,-0.0678976345306122,-0.0776342517506064,0.744551772894649,0.514906764030457,0.119556747376919,0.0218818783760071,B
1526528489.03952,-0.0698697188658445,-0.0812701983554993,0.745441882824112,0.523287296295166,0.112849995493889,0.0204973816871643,B
1526528489.04953,-0.0717781442153851,-0.0853609299222594,0.74821083254479,0.517332494258881,0.0998470634222031,0.0229223966598511,B
1526528489.05972,-0.0734104622636633,-0.0892757222588294,0.75260339789591,0.508812963962555,0.067413255572319,0.0235320925712585,B
1526528489.07052,-0.0744040355244717,-0.0928596000019603,0.758044529939491,0.49822473526001,0.0351119339466095,0.0101945400238037,B
1526528489.07958,-0.0746061653408952,-0.0962215834480914,0.763905735817955,0.488529354333878,0.00655744224786758,-0.0199068188667297,B
1526528489.0898,-0.0735147330857125,-0.0994178280780407,0.770271600807144,0.467952787876129,-0.0182147026062012,-0.0328788757324219,B
1526528489.10255,-0.0710044961915013,-0.102745311666329,0.776861273601014,0.444456815719604,-0.0343883633613586,-0.039793074131012,B
1526528489.11001,-0.067029486962054,-0.106429670620355,0.784014258421072,0.419368267059326,-0.0433626472949982,-0.0418420433998108,B
1526528489.11994,-0.0618475666143662,-0.110679699082678,0.791902637059981,0.38448902964592,-0.0406296476721764,-0.0312429070472717,B
1526528489.13016,-0.0559043283960408,-0.115463170513467,0.800871834415526,0.373374253511429,-0.0305052548646927,-0.0427257418632507,B
1526528489.1401,-0.049535799681508,-0.119819893309803,0.811196772265378,0.335155993700027,-0.057735301554203,-0.032023549079895,B
1526528489.15015,-0.0423349664135137,-0.123493282229179,0.822720111817179,0.285759180784225,-0.0751602202653885,-0.0232753157615662,B
1526528489.16026,-0.0341579033825248,-0.126938768634792,0.834555185613145,0.237947523593903,-0.11146143078804,-0.0332522392272949,B
1526528489.17271,-0.025392050883247,-0.13091026355898,0.846130468697736,0.234049648046494,-0.127072930335999,-0.0612137913703918,B
1526528489.18079,-0.0167717078645067,-0.134694111425106,0.858186518476495,0.170091927051544,-0.156534522771835,-0.0744282603263855,B
1526528489.19035,-0.00833883130566925,-0.137499810590562,0.871182390214882,0.106343522667885,-0.18041718006134,-0.0693328976631165,B
1526528489.20484,-0.000195680747199374,-0.138879719421004,0.884593764794868,0.0691635236144066,-0.204290643334389,-0.0692597031593323,B
1526528489.2106,0.00734778266640533,-0.139197992669453,0.898053356166709,0.0305498912930489,-0.223984509706497,-0.0579016804695129,B
1526528489.22056,0.0146264587963047,-0.139433737384194,0.910752723841114,0.01710170134902,-0.225514963269234,-0.0720822215080261,B
1526528489.2321,0.0216038559606365,-0.139752856577658,0.922414841527247,-0.00883357971906662,-0.235306680202484,-0.0785079002380371,B
1526528489.24076,0.0279552327580838,-0.139913182289642,0.933322940082946,-0.0378560647368431,-0.213660642504692,-0.0685084462165833,B
1526528489.25128,0.0338876493074182,-0.139900966129728,0.943440616903623,-0.0537527725100517,-0.187983259558678,-0.0694971084594727,B
1526528489.26083,0.038962058758548,-0.139489700506954,0.953294254440862,-0.0634762048721313,-0.158279120922089,-0.0796478986740112,B
1526528489.2731,0.0426838823805779,-0.138403507507762,0.962591242333174,-0.0871084630489349,-0.12799808382988,-0.084591805934906,B
1526528489.28106,0.0451600751564569,-0.136362090508308,0.971236631339734,-0.0887777730822563,-0.0856621712446213,-0.0917444229125977,B
1526528489.29105,0.0467418677703591,-0.132862535921029,0.977248227745794,-0.0736873149871826,0.00162224471569061,-0.0992665886878967,B
1526528489.30548,0.0476665707901287,-0.127749446111462,0.980252866518467,-0.078525498509407,0.0395746827125549,-0.0802746415138245,B
1526528489.31112,0.0481486195314954,-0.120975850203977,0.981098485105729,-0.116610646247864,-0.0288078114390373,-0.0723019242286682,B
1526528489.32114,0.0486825339858222,-0.112937420926434,0.980910158606198,-0.178312391042709,-0.0281485393643379,-0.0715280175209045,B
1526528489.33183,0.0492494692467642,-0.104539012493548,0.98085796589995,-0.238581776618958,-0.00821833312511444,-0.082669198513031,B
1526528489.34101,0.0497433974245412,-0.0968696155917464,0.982200730549595,-0.286336690187454,-0.0153888389468193,-0.0822590589523315,B
1526528489.35104,0.0505960529146035,-0.0907928831165329,0.985787330915749,-0.349865674972534,-0.0336918756365776,-0.0676797032356262,B
1526528489.3611,0.0524795465361519,-0.0869845542611188,0.992294006024601,-0.411784738302231,-0.0506963133811951,-0.0494638681411743,B
1526528489.37253,0.0550034625368342,-0.0858474321335299,1.0011297471562,-0.425531327724457,-0.0515623390674591,-0.0435652136802673,B
1526528489.38158,0.0570547291100234,-0.0870774152280042,1.01047427446261,-0.38415452837944,-0.0134353116154671,-0.0414664149284363,B
1526528489.39158,0.0589973703174529,-0.089613502710573,1.01892600037882,-0.345088243484497,-0.0105904117226601,0.00839942693710327,B
1526528489.40563,0.0612011596791909,-0.0922813640216539,1.02579364000925,-0.334736943244934,-0.0340297147631645,0.0577846169471741,B
1526528489.41172,0.0631373519856832,-0.0943107258754445,1.03082927064436,-0.324274361133575,-0.033288411796093,0.0804101228713989,B
1526528489.42183,0.0639747294483516,-0.0954500773479204,1.03396273121025,-0.295054882764816,-0.025801420211792,0.0812260508537292,B
1526528489.43196,0.0640443654316952,-0.0957853956104531,1.03551269295173,-0.263307452201843,-0.0137450769543648,0.0721869468688965,B
1526528489.442,0.0639842430214689,-0.0954182498735263,1.03614693085448,-0.252904504537582,-0.00808480381965637,0.0573484301567078,B
1526528489.45452,0.0638261453348661,-0.0943419019575379,1.03640357305558,-0.232764929533005,-0.0133456960320473,0.0371050238609314,B
1526528489.46215,0.0639319675522585,-0.0925390259958247,1.03661684846186,-0.210877642035484,-0.0162656456232071,0.0203594565391541,B
1526528489.4726,0.0655683101375149,-0.0897389237837098,1.03682290623771,-0.205501228570938,-0.0227850303053856,0.0121007561683655,B
1526528489.4822,0.0686374952395963,-0.0860783130397659,1.03647286677766,-0.163315653800964,-0.0152017921209335,-0.00435465574264526,B
1526528489.49229,0.072555241956455,-0.0819278020458433,1.0354182305919,-0.146696075797081,-0.0137514621019363,-0.0190531611442566,B
1526528489.50497,0.077957388003269,-0.0777929524392968,1.03351117327257,-0.137732028961182,-0.011811800301075,0.00798577070236206,B
1526528489.51193,0.0857160597902982,-0.0743528777052739,1.03089296489516,-0.173631429672241,-0.0224808007478714,0.0444334149360657,B
0,0,0,0,0,0,0,0,0
1526528490.25733,0.022390841760871,-0.0495289417547734,0.961447278961509,-0.0674207210540771,0.17891538143158,0.092227578163147,B
1526528490.27008,0.0185770710769609,-0.0499949854644453,0.959964707870771,-0.0469036214053631,0.19512777030468,0.110577702522278,B
1526528490.27694,0.0127846926479194,-0.0520086254760761,0.958820168362965,-0.0375168137252331,0.222917169332504,0.027893602848053,B
1526528490.28776,0.00787289906022009,-0.0546134902465531,0.957709909381512,-0.0601529479026794,0.258356153964996,0.0384103655815125,B
1526528490.29871,0.00464899863555307,-0.0567498285203219,0.956765791709199,-0.0761746987700462,0.272473752498627,0.0336271524429321,B
1526528490.30721,0.00253882026395725,-0.0580904809737334,0.956076762180352,-0.049089103937149,0.282945603132248,0.0400733351707458,B
1526528490.31733,0.000354320219229075,-0.05894245185757,0.955760503029459,-0.0416592471301556,0.313665509223938,0.0419339537620544,B
1526528490.32715,-0.00223750753926211,-0.0597132227180618,0.955862788612503,-0.0716953128576279,0.355086654424667,0.0259099006652832,B
1526528490.33827,-0.00485553524050603,-0.0610197414256417,0.95630307493467,-0.0908108651638031,0.396156191825867,0.0130501985549927,B
1526528490.34712,-0.00698022273075575,-0.0631019078662972,0.957259545518541,-0.0862954407930374,0.409825086593628,0.000228464603424072,B
1526528490.35701,-0.00905035072646699,-0.0662750084002665,0.958405829549158,-0.074007973074913,0.42187163233757,-0.0190056562423706,B
1526528490.37485,-0.0109936238498235,-0.070412032777106,0.959624533381638,-0.0607959255576134,0.456318497657776,-0.0470023155212402,B
1526528490.37712,-0.0121923000789943,-0.0748494287818027,0.961548791300871,-0.0585208460688591,0.447071015834808,-0.0573021173477173,B
1526528490.38718,-0.0127382002168006,-0.0785102991754955,0.96413097350142,-0.04049351811409,0.420364886522293,-0.0572078824043274,B
1526528490.39816,-0.0124269374775829,-0.0807770585623624,0.966777927382975,-0.0105783808976412,0.414412677288055,-0.0464895367622375,B
1526528490.40734,-0.010405860043663,-0.0814004112523038,0.969597672937327,-0.0156755372881889,0.398837774991989,-0.0086904764175415,B
1526528490.4175,-0.00631895258981996,-0.0804372816995057,0.972799276846373,-0.013080183416605,0.372469246387482,0.0242736339569092,B
1526528490.42781,-0.0007785188857078,-0.0787865505879394,0.976525102174548,-0.00355739146471024,0.366744756698608,0.0454816222190857,B
1526528490.43898,0.00528763822883368,-0.0772172117923326,0.981293502152618,-0.00102991424500942,0.33976012468338,0.0635803937911987,B
1526528490.448,0.0107399203993161,-0.0756517472051131,0.987202929079364,-0.0080539658665657,0.275677710771561,0.0985074043273926,B
1526528490.45799,0.0148214165494045,-0.073879425911838,0.993667852315348,-0.0216163825243711,0.228601709008217,0.123993694782257,B
1526528490.4703,0.0172840532864969,-0.0718544639885208,0.999965946155248,-0.0292777791619301,0.175170853734016,0.12626838684082,B
1526528490.47812,0.0189240383600145,-0.0698798801014865,1.00535874535395,-0.0499283596873283,0.126908540725708,0.120061457157135,B
1526528490.48797,0.0204941848021651,-0.0684193971487658,1.0094171692934,-0.0649394318461418,0.0916376337409019,0.0966786742210388,B
1526528490.49865,0.0233030567502851,-0.0678311208631379,1.01208609915497,-0.067238450050354,0.0471043065190315,0.0909658670425415,B
1526528490.50832,0.0273164230397217,-0.0687042290404638,1.01351510409025,-0.0438043735921383,0.0196219086647034,0.101882874965668,B
1526528490.51861,0.0318039704499715,-0.0716574968360182,1.01457209656058,-0.0153290666639805,0.0310344249010086,0.0985528230667114,B
1526528490.52842,0.0363690368885468,-0.0766602192296385,1.01623521784387,-0.01545649766922,0.0324083790183067,0.080601692199707,B
1526528490.53901,0.0414136227980536,-0.0833817448076687,1.01863047995305,-0.0301953218877316,0.0162021443247795,0.0458269119262695,B
1526528490.54859,0.0460134043231313,-0.0911303754589729,1.02156612040029,0.00810299813747406,-0.0313729420304298,0.0152737498283386,B
1526528490.5586,0.050007042648071,-0.0989105542698256,1.02482053005902,0.041124202311039,-0.0731145888566971,-0.0147223472595215,B
1526528490.57249,0.0535421747056132,-0.105739342033763,1.02840430205724,0.0497638732194901,-0.106671564280987,-0.0322940945625305,B
1526528490.5787,0.0571024074183769,-0.111077902792302,1.03197400028567,0.0285922288894653,-0.136041879653931,-0.0480964183807373,B
1526528490.58879,0.0609347932160176,-0.114987757554216,1.03508441765788,0.00881047919392586,-0.166004061698914,-0.0344942808151245,B
1526528490.60772,0.0642069498044672,-0.118246353793044,1.03747423816443,0.0314084962010384,-0.173039957880974,-0.0512349605560303,B
1526528490.60921,0.0670352003265221,-0.12156340950191,1.03952437826728,0.0443644300103188,-0.188647031784058,-0.0421562194824219,B
1526528490.61918,0.0698458146319625,-0.125385995464276,1.04183745782243,0.049579031765461,-0.194912448525429,-0.0352940559387207,B
1526528490.62857,0.0737075872818963,-0.129948802109314,1.04496623527196,0.0401392206549644,-0.209905654191971,-0.0326844453811646,B
1526528490.63911,0.0788775865816915,-0.135342632754571,1.04878849013885,0.0466806143522263,-0.251033961772919,-0.0224795937538147,B
1526528490.64912,0.0843546220965534,-0.14132601101213,1.05306492545766,0.0602774173021317,-0.277330636978149,-0.00827175378799438,B
1526528490.65917,0.089168815721913,-0.147416123192087,1.05776513666037,0.0600779950618744,-0.305925130844116,0.00107795000076294,B
1526528490.67274,0.0935829161723788,-0.153064561842558,1.06285736913786,0.0258254781365395,-0.344789326190948,-0.00313770771026611,B
1526528490.6792,0.0972503864724612,-0.158076647513094,1.06811850266997,0.0196072310209274,-0.407007157802582,-0.0144793391227722,B
1526528490.68924,0.100211833721702,-0.162885671179184,1.0730733905798,0.0122419744729996,-0.444881200790405,-0.0456072688102722,B
1526528490.69991,0.102589646457427,-0.167188922609213,1.07785182433073,0.00528037548065186,-0.489943236112595,-0.0717098116874695,B
1526528490.70957,0.104444666360651,-0.170582442896067,1.08230662042944,0.00803709030151367,-0.542803227901459,-0.0782491564750671,B
1526528490.72083,0.106050756811854,-0.173165324112945,1.08614572709231,0.0183811634778976,-0.557280421257019,-0.0783359408378601,B
1526528490.72958,0.108013586437648,-0.17531394876724,1.08961511984534,0.0264628976583481,-0.57108473777771,-0.0848484635353088,B
1526528490.73988,0.110585271017105,-0.176988068747672,1.09314118897895,0.0423191860318184,-0.611032545566559,-0.0715765357017517,B
1526528490.74977,0.113276500509524,-0.17785326587244,1.09706733475432,0.0587620660662651,-0.64624696969986,-0.0305965542793274,B
1526528490.7598,0.115189437856096,-0.177737222502367,1.10148111964762,0.040196105837822,-0.6552574634552,0.0126051902770996,B
1526528490.7727,0.115549982852029,-0.176756187227395,1.10612137797315,-0.00204646587371826,-0.640803039073944,0.0309857130050659,B
1526528490.77993,0.114003968261389,-0.175123206870263,1.1102543198549,-0.0531793683767319,-0.61372834444046,0.0151170492172241,B
1526528490.79001,0.110218337790732,-0.172956742159078,1.11283247697408,-0.0995498821139336,-0.583976209163666,-0.0308917164802551,B
1526528490.80132,0.104454154974621,-0.170107394513611,1.11298744454542,-0.126029074192047,-0.576545298099518,-0.107726335525513,B
1526528490.81021,0.0970680721719734,-0.166164689459835,1.11032166097284,-0.129043340682983,-0.564082741737366,-0.173140406608582,B
1526528490.82012,0.0885788691382087,-0.160486765121716,1.10558736165767,-0.100464105606079,-0.54085648059845,-0.217053234577179,B
1526528490.83028,0.0800521877269528,-0.152491158406025,1.1001829535253,-0.0705548673868179,-0.523299813270569,-0.226973593235016,B
1526528490.84022,0.0724933102190194,-0.142146880960513,1.09520979072587,-0.0511762425303459,-0.47621762752533,-0.202093243598938,B
1526528490.85092,0.0659320493630838,-0.130612994912151,1.09152220966046,-0.0413515418767929,-0.421639025211334,-0.155264317989349,B
1526528490.86046,0.0599900873715225,-0.119608467377943,1.08929750839995,-0.0424054004251957,-0.369384527206421,-0.115208089351654,B
1526528490.87119,0.0543944494728242,-0.11013908696179,1.08786459659621,-0.0744239464402199,-0.289359897375107,-0.10703182220459,B
1526528490.88091,0.0490973406825285,-0.102322763531238,1.08608698065652,-0.12784618139267,-0.214326918125153,-0.137837827205658,B
1526528490.89055,0.0445178671244256,-0.0950118956502533,1.08267134816467,-0.169104069471359,-0.200505614280701,-0.161212503910065,B
1526528490.90729,0.0392220843903011,-0.0866275791630844,1.07661470785589,-0.133486375212669,-0.206010848283768,-0.145537793636322,B
1526528490.91041,0.0324401184759658,-0.0765656772799892,1.06834356702648,-0.096121147274971,-0.162046909332275,-0.117910504341125,B
1526528490.92031,0.0250980120643929,-0.0654646137150422,1.05955078557496,-0.112367674708366,-0.0876651778817177,-0.101226449012756,B
1526528490.93102,0.0182947585984287,-0.0543056932961906,1.05151082787877,-0.111787885427475,-0.0426365472376347,-0.0844507217407227,B
1526528490.94094,0.0129782873205028,-0.0439850445492179,1.04492577038519,-0.0942489355802536,-0.00127677246928215,-0.0538314580917358,B
1526528490.9514,0.0094663364740867,-0.0351377430092848,1.04047950779391,-0.0836638435721397,0.0338086970150471,-0.0105192065238953,B
1526528490.96099,0.00769432569829336,-0.0282342748454732,1.03815264751688,-0.0980537310242653,0.062727116048336,0.0307913422584534,B
1526528490.97219,0.00725458112016266,-0.0238631043110788,1.03713470501551,-0.151646375656128,0.117832273244858,0.0353182554244995,B
1526528490.98122,0.00690242883180839,-0.0218340210994718,1.03619073019278,-0.222904145717621,0.143267810344696,0.00800812244415283,B
1526528490.9912,0.00601561703529782,-0.0202137734191227,1.03376685300985,-0.287203311920166,0.133764043450356,0.0123661160469055,B
1526528491.00821,0.00456240518861063,-0.016927095996152,1.02852208453429,-0.272460281848907,0.118022441864014,0.049284815788269,B
1526528491.01093,0.00206259356761276,-0.0112656481862991,1.02027414222138,-0.254274994134903,0.119822844862938,0.0817368030548096,B
1526528491.02095,-0.00148963889861607,-0.00416814865031572,1.00981430719913,-0.256521224975586,0.173566237092018,0.0943200588226318,B
1526528491.03112,-0.00583159048173281,0.00313085770037377,0.998828027445533,-0.25674170255661,0.220019280910492,0.0934534072875977,B
1526528491.04112,-0.0098608915935203,0.0098301675454323,0.988524901049247,-0.252926617860794,0.247363582253456,0.106302618980408,B
1526528491.0513,-0.0124520634477066,0.0149155305258838,0.979240963843741,-0.250000804662704,0.308295726776123,0.113367140293121,B
1526528491.06159,-0.0130241535050026,0.017104720135941,0.971174358753458,-0.246057093143463,0.358824461698532,0.0884224772453308,B
1526528491.07243,-0.0119376239034705,0.0159844760772306,0.964252742588649,-0.252086997032166,0.395759791135788,0.0548699498176575,B
1526528491.08171,-0.0100101194222011,0.0122960316289379,0.958009973505297,-0.263001054525375,0.436108589172363,0.0271875262260437,B
1526528491.09176,-0.0087992265153658,0.00790218509310407,0.952040242236576,-0.299779653549194,0.439344376325607,0.0110384821891785,B
1526528491.10529,-0.00938874422489875,0.0045939509836397,0.945500881836115,-0.327556073665619,0.429612249135971,0.0167453289031982,B
1526528491.1119,-0.0118219191939855,0.00348163597181715,0.937444271758966,-0.305515468120575,0.408556699752808,0.0260013341903687,B
1526528491.12195,-0.0155694632700938,0.00542888629036904,0.926983747424746,-0.244258061051369,0.432400286197662,0.0893568396568298,B
1526528491.13215,-0.0194880960356656,0.0102388720011314,0.914637673716335,-0.212417230010033,0.468566954135895,0.145769059658051,B
1526528491.14254,-0.0225867660982494,0.0158893092954928,0.901849323577203,-0.188752233982086,0.490345418453217,0.159942805767059,B
1526528491.15396,-0.0241357062007485,0.019430165556957,0.889999530519721,-0.169535741209984,0.499928206205368,0.121132612228394,B
1526528491.16217,-0.023393040527857,0.0193564238548807,0.879379865540682,-0.139302685856819,0.513755261898041,0.101711988449097,B
1526528491.17369,-0.0204503048077866,0.0160152229287131,0.870205314788668,-0.0968938320875168,0.50138133764267,0.113340675830841,B
1526528491.18244,-0.0162913142050662,0.0108891579681674,0.862261781388808,-0.0521918162703514,0.463983416557312,0.136480987071991,B
1526528491.1922,-0.0124645770296141,0.00544298738107046,0.855071801201803,-0.00541923101991415,0.431346267461777,0.162840843200684,B
1526528491.20298,-0.00995891626803151,0.00139549054200249,0.848432089618695,0.0424447059631348,0.403159409761429,0.190104484558105,B
1526528491.21259,-0.00899525992159676,-0.00105262953548755,0.842219524156677,0.0797806531190872,0.379501581192017,0.208714485168457,B
1526528491.22246,-0.00904362420221631,-0.00291518192146801,0.836164142765483,0.128992795944214,0.358489245176315,0.205277144908905,B
1526528491.23302,-0.00980990496824778,-0.00562075213223904,0.830291685043693,0.191343411803246,0.337732553482056,0.173474311828613,B
1526528491.24287,-0.0111874431201105,-0.00985980035154965,0.824884301001953,0.254152357578278,0.303204923868179,0.140803754329681,B
1526528491.25411,-0.0130729596838971,-0.0153631006898528,0.82012939315924,0.328592270612717,0.269351243972778,0.121882140636444,B
1526528491.26302,-0.0156914765736527,-0.0214832875310264,0.816136876134202,0.412125796079636,0.227999567985535,0.0936098098754883,B
1526528491.27483,-0.0186981911153844,-0.0274601451839468,0.812978811847065,0.471921861171722,0.201348841190338,0.0579351782798767,B
1526528491.28258,-0.0209857507227355,-0.0330909027381717,0.810849790601354,0.533500194549561,0.172359466552734,0.0251113772392273,B
1526528491.29273,-0.0215482744634405,-0.0389423660392794,0.80987120597882,0.588714718818665,0.14501217007637,-0.0221998691558838,B
1526528491.30244,-0.0201382556296045,-0.0458508698025376,0.810027124356041,0.63585364818573,0.117480009794235,-0.0867180228233337,B
1526528491.31261,-0.0172678339425531,-0.0536253201418427,0.811383633812488,0.682662665843964,0.0826155841350555,-0.131148755550385,B
1526528491.32268,-0.0135270061737632,-0.060965353123706,0.81417311152663,0.711179077625275,0.0581214763224125,-0.145244419574738,B
1526528491.3348,-0.00964636582041818,-0.0665170420548384,0.818804931176401,0.718426167964935,0.0416100025177002,-0.139129221439362,B
1526528491.34338,-0.00635773852369247,-0.06967393011414,0.825615251859609,0.705240607261658,0.0364920496940613,-0.134846925735474,B
1526528491.35384,-0.00387563036949954,-0.0704731468508216,0.834561104083795,0.669057667255402,0.0336348563432693,-0.134462952613831,B
1526528491.36351,-0.00170037278098459,-0.0695625662079167,0.845104785013752,0.622912108898163,0.0135623663663864,-0.133492946624756,B
1526528491.37358,0.000926627577909176,-0.0678031559841126,0.856720261257021,0.590536713600159,-0.015459343791008,-0.12671834230423,B
1526528491.38339,0.0048867632333148,-0.066216614496857,0.869013046195115,0.547782063484192,-0.0478119105100632,-0.112310886383057,B
1526528491.39353,0.0101928780028106,-0.0655389488826149,0.882009762173423,0.501471638679504,-0.0799726322293282,-0.0936751961708069,B
1526528491.40418,0.0166186785448619,-0.0657530089980366,0.89598728599871,0.438389301300049,-0.0974286645650864,-0.0677589774131775,B
1526528491.41416,0.0235168952111802,-0.0663015969295273,0.911181025584103,0.362584292888641,-0.106231056153774,-0.0356761813163757,B
1526528491.4237,0.0303228981100124,-0.0667025627006591,0.927788964996358,0.278602331876755,-0.112170085310936,-0.0166595578193665,B
1526528491.43878,0.036949698323724,-0.0665834419044941,0.945547664168638,0.174810484051704,-0.130117624998093,-0.00477373600006104,B
1526528491.44403,0.0425696366195625,-0.0660749064085487,0.963387843894927,0.0768445581197739,-0.15561118721962,0.0084800124168396,B
1526528491.45429,0.0469753691565318,-0.0653337600331835,0.980243535587387,-0.00890929996967316,-0.170374572277069,0.00730955600738525,B
1526528491.47447,0.0504732451406205,-0.0644219208092854,0.995635369935455,-0.104515865445137,-0.18003898859024,0.017193078994751,B
1526528491.47561,0.052954114321776,-0.0635765474080592,1.00950398748143,-0.189709037542343,-0.182079255580902,0.00939816236495972,B
1526528491.48389,0.0544075577574285,-0.0627788509326255,1.02224013387197,-0.27198600769043,-0.176385074853897,-0.0101606249809265,B
1526528491.4938,0.0547867761914529,-0.0616170663736796,1.03406388532325,-0.353834539651871,-0.18201570212841,-0.0313189029693604,B
1526528491.50391,0.0545799148323096,-0.0597842388849164,1.04479776547232,-0.419247210025787,-0.177424415946007,-0.0441055297851562,B
1526528491.51402,0.054177473219051,-0.0575714475277021,1.05447692334038,-0.47308287024498,-0.155760481953621,-0.0659573078155518,B
1526528491.52427,0.0538790568631519,-0.0553834699489396,1.06318794122642,-0.536039710044861,-0.143978208303452,-0.0896063446998596,B
1526528491.53882,0.0536199478787191,-0.0532498217861281,1.07081774781686,-0.603902816772461,-0.127962216734886,-0.103194415569305,B
1526528491.54457,0.0529038325412269,-0.0509098582810385,1.0771236748812,-0.659027099609375,-0.105788990855217,-0.105582892894745,B
1526528491.55449,0.0515589886546043,-0.0480839081815173,1.08175039862557,-0.699700474739075,-0.097610667347908,-0.0985524654388428,B
1526528491.57386,0.0496931266115289,-0.0448119927589041,1.08432738867459,-0.724519073963165,-0.0910158678889275,-0.09287428855896,B
1526528491.57485,0.0475227604686477,-0.0414313510328036,1.08467563064906,-0.72934889793396,-0.0760569497942924,-0.0897547602653503,B
1526528491.58495,0.0452588935689308,-0.0381392507399178,1.08285926715646,-0.72009152173996,-0.0623151883482933,-0.0768847465515137,B
1526528491.59474,0.0430113644974789,-0.0350197111223029,1.07912200467946,-0.702639698982239,-0.0371182672679424,-0.0488396286964417,B
1526528491.60495,0.0406267818824443,-0.032035404128649,1.0738737798005,-0.673636138439178,-0.00531178712844849,-0.0169933438301086,B
1526528491.61479,0.0381064496315639,-0.0290717370496447,1.06762148981848,-0.637659966945648,0.0164340659976006,0.0200614929199219,B
1526528491.62489,0.0359667823575618,-0.0261695323640352,1.06053799092309,-0.596295237541199,0.0350822322070599,0.060641348361969,B
1526528491.63547,0.0341594663158636,-0.0238018724670921,1.05247021573005,-0.552514731884003,0.0565226376056671,0.0903200507164001,B
1526528491.6451,0.0324450659249955,-0.0221699747434857,1.04332958255585,-0.513190090656281,0.0722837448120117,0.114355623722076,B
1526528491.65522,0.0302000389745054,-0.0210735309506217,1.03319805880561,-0.474127948284149,0.0913700461387634,0.148980259895325,B
1526528491.67706,0.0265192514345894,-0.0201507412719705,1.02219100068801,-0.427206575870514,0.109428256750107,0.178995609283447,B
1526528491.6775,0.0206038554822238,-0.0188596484893123,1.01065913314753,-0.379790633916855,0.13148632645607,0.200247764587402,B
1526528491.68491,0.0124662514578938,-0.016743118809725,0.998862832292082,-0.336255699396133,0.149639502167702,0.218349039554596,B
1526528491.69501,0.00285591832426409,-0.0139499064879783,0.986676683600315,-0.286577552556992,0.167797982692719,0.22202080488205,B
1526528491.70502,-0.00713318359485822,-0.0114078535617988,0.974122575537504,-0.233574733138084,0.189794778823853,0.198701024055481,B
1526528491.71497,-0.0164023313246303,-0.0101095419490731,0.961240203850029,-0.188280642032623,0.21633106470108,0.159650206565857,B
1526528491.7257,-0.0240665948647284,-0.0105530377931405,0.948231020718566,-0.134475886821747,0.228323504328728,0.129522323608398,B
1526528491.7356,-0.0297048376302106,-0.012928062250279,0.935183172269882,-0.076625257730484,0.241192176938057,0.10828572511673,B
1526528491.7455,-0.0338944938513607,-0.0169618265248635,0.922296752367056,-0.0207738541066647,0.250952810049057,0.0920553207397461,B
1526528491.75533,-0.0373563115324451,-0.0218700558780126,0.909897433886558,0.0323643274605274,0.241513639688492,0.079370379447937,B
1526528491.76568,-0.0406282434161646,-0.0267808909993196,0.897942990920874,0.0694416165351868,0.242448389530182,0.0717077255249023,B
1526528491.77531,-0.0445096099770026,-0.0312574112917037,0.88611750815532,0.108102329075336,0.251340448856354,0.057786762714386,B
1526528491.78625,-0.0497436205035842,-0.0350496512396989,0.874444967512705,0.153421819210052,0.248526856303215,0.0413777828216553,B
1526528491.79557,-0.0563744291080191,-0.0381196078220733,0.863076166215643,0.190458908677101,0.258337378501892,0.0279290080070496,B
1526528491.80567,-0.0640005651003346,-0.0406454365775205,0.852191829489694,0.225082635879517,0.27842703461647,0.0129212737083435,B
1526528491.8157,-0.0716533174978844,-0.0429948777072529,0.842086594029148,0.26828795671463,0.283174991607666,-0.00742453336715698,B
1526528491.82562,-0.0784846885270899,-0.0456465551441831,0.832898973772407,0.310713827610016,0.280785322189331,-0.0309722423553467,B
1526528491.83592,-0.0843353622746632,-0.0488475384696023,0.824383607585223,0.363370776176453,0.273727416992188,-0.0558443665504456,B
1526528491.84591,-0.0886178693553696,-0.0524547271892216,0.816515239014067,0.397904753684998,0.272001683712006,-0.0701591372489929,B
1526528491.85578,-0.0914836079586823,-0.0563689651662532,0.809516577872837,0.438165307044983,0.244548946619034,-0.0684922933578491,B
1526528491.86607,-0.0935998432066144,-0.0605186435887076,0.803680412600579,0.467300295829773,0.231937721371651,-0.0581561326980591,B
1526528491.87603,-0.0957358220117915,-0.0646417606155969,0.799236172200799,0.460181891918182,0.240746885538101,-0.0452018976211548,B
1526528491.88599,-0.0989520352621851,-0.0684285876381508,0.796092845187032,0.457919180393219,0.238906294107437,-0.0370973348617554,B
1526528491.89608,-0.104218675090243,-0.0716555208395484,0.794094922112225,0.472110331058502,0.229461684823036,-0.030805230140686,B
1526528491.90627,-0.111547924005664,-0.0741922831219683,0.793328057663036,0.477801263332367,0.219637975096703,-0.0495830774307251,B
1526528491.91615,-0.119119929575275,-0.0760188147254739,0.793834339614519,0.475795030593872,0.178982973098755,-0.0781760215759277,B
1526528491.92614,-0.125332903653203,-0.0776967170699064,0.795279038650771,0.487527668476105,0.126742392778397,-0.0954318642616272,B
1526528491.93638,-0.128869594019583,-0.0802468853075152,0.797424176229043,0.50734156370163,0.0861447528004646,-0.121697843074799,B
1526528491.9464,-0.129066150041622,-0.0845162782266294,0.800114769836429,0.508741855621338,0.0366475358605385,-0.140229403972626,B
1526528491.95648,-0.126123641801986,-0.0904414149022773,0.803549380064915,0.491471111774445,0.0155320465564728,-0.138035237789154,B
1526528491.96803,-0.120773544136702,-0.0973825773047166,0.808224584595306,0.456197768449783,0.00723293423652649,-0.106683790683746,B
1526528491.97654,-0.114175094425793,-0.104678759312327,0.814417199034207,0.413672834634781,0.00836631655693054,-0.0896468758583069,B
1526528491.98656,-0.107428692472136,-0.111507863287971,0.822384603028286,0.384464591741562,-0.0247443318367004,-0.0713421702384949,B
1526528491.99665,-0.101159944845527,-0.117089068346191,0.831483183129134,0.365753173828125,-0.0585789084434509,-0.0413281321525574,B
1526528492.00676,-0.0953822242497582,-0.121378963983435,0.841382394384203,0.335366427898407,-0.073870450258255,-0.0273418426513672,B
1526528492.01684,-0.0896221311108708,-0.12473504560668,0.851530518056873,0.30105659365654,-0.106559060513973,-0.0316184759140015,B
1526528492.02675,-0.0836607039175821,-0.127722996043501,0.861487108890664,0.289944231510162,-0.145640790462494,-0.0331294536590576,B
1526528492.03699,-0.0768769407247111,-0.131047820743689,0.870649476251881,0.26672500371933,-0.15537703037262,-0.0491766929626465,B
1526528492.04708,-0.0682406026288411,-0.135516146717562,0.878894545974899,0.2309230864048,-0.161316350102425,-0.0715635418891907,B
1526528492.05696,-0.0580682121929393,-0.141770799987085,0.88594558559236,0.22089022397995,-0.184783920645714,-0.101819694042206,B
1526528492.0672,-0.0469237046589903,-0.149458181980548,0.892377627883549,0.203442275524139,-0.192710354924202,-0.122206687927246,B
1526528492.07717,-0.0357478059941115,-0.157060633751911,0.898962472701647,0.181433707475662,-0.196698904037476,-0.115951836109161,B
1526528492.08705,-0.0253543204347171,-0.162991220200956,0.906542616768737,0.159155622124672,-0.192864373326302,-0.100744307041168,B
1526528492.09761,-0.0158960547283765,-0.166351079023936,0.915578893590404,0.124898374080658,-0.184063315391541,-0.0880562663078308,B
1526528492.10749,-0.007288304993455,-0.167068214686723,0.926615402860789,0.0829313918948174,-0.191408067941666,-0.0831788182258606,B
1526528492.11763,0.000895661483749171,-0.165789155164887,0.939271462490505,0.0237900838255882,-0.198172807693481,-0.0838108658790588,B
1526528492.1275,0.0092057970060955,-0.163309196381298,0.953165246582721,-0.0430492460727692,-0.200700700283051,-0.0787006020545959,B
1526528492.13768,0.0182052605752253,-0.160263542598513,0.967461825150534,-0.0996512696146965,-0.219102919101715,-0.0737693905830383,B
1526528492.14765,0.0280715694991919,-0.157168008992588,0.9814208952776,-0.16035133600235,-0.232281640172005,-0.0666849613189697,B
1526528492.15815,0.0384534463259106,-0.154292629019721,0.994346142510441,-0.219582125544548,-0.226145163178444,-0.0603547692298889,B
1526528492.17222,0.0488092528873783,-0.151870345408601,1.00578551171588,-0.258982688188553,-0.20962156355381,-0.0501934885978699,B
1526528492.1783,0.0574573750760105,-0.149483206392639,1.01601021008599,-0.317710667848587,-0.200990110635757,-0.0321012735366821,B
1526528492.18831,0.0633617057311735,-0.146644331841741,1.02504527560245,-0.357256412506104,-0.172883227467537,0.00577545166015625,B
1526528492.19869,0.0661323883424405,-0.143316546447162,1.03273065713681,-0.366691470146179,-0.122547507286072,0.0244036316871643,B
1526528492.2086,0.0660680963304174,-0.139650651691354,1.03989352587546,-0.381112188100815,-0.088217556476593,0.0296385884284973,B
1526528492.2187,0.0643606408213217,-0.136024249494646,1.04722558218849,-0.380265712738037,-0.0687411576509476,0.0300323963165283,B
1526528492.22853,0.0620635819570463,-0.132946648249635,1.05469288365156,-0.36755245923996,-0.0426353216171265,0.00905787944793701,B
1526528492.2387,0.0602157475525617,-0.13066821294663,1.06205121138503,-0.361729323863983,-0.0255756229162216,-0.000754714012145996,B
1526528492.24865,0.0590671657134018,-0.129162278733509,1.06914478607292,-0.340584546327591,-0.0196573287248611,-0.00958627462387085,B
1526528492.25872,0.0583727427356365,-0.128060837712589,1.07582688492254,-0.329315721988678,-0.0231121033430099,-0.0109612345695496,B
1526528492.27217,0.057481302502573,-0.126870344232254,1.08200499253637,-0.315639644861221,-0.021305650472641,0.00102078914642334,B
1526528492.27876,0.0560582619268419,-0.125307146419649,1.08769798332072,-0.301896989345551,-0.0186562389135361,0.0167543292045593,B
1526528492.28895,0.0539960242401563,-0.123690381237042,1.09281181945634,-0.295439779758453,-0.0128558203577995,0.0204395055770874,B
1526528492.29927,0.0516958470082995,-0.122478286126907,1.09723361313433,-0.288239479064941,-0.00980658084154129,0.00905102491378784,B
1526528492.30917,0.0500297232019465,-0.122080253545437,1.10058250725878,-0.279678165912628,-0.0136382058262825,-0.00569373369216919,B
1526528492.32065,0.0488877255190988,-0.122652632259433,1.10249683021936,-0.257210850715637,-0.0261539295315742,-0.0176551342010498,B
1526528492.32915,0.0480796162661421,-0.124150680833606,1.10288003071483,-0.226814091205597,-0.027854211628437,-0.0217372179031372,B
1526528492.33924,0.0476130286737907,-0.126182331304916,1.10197193021136,-0.208074793219566,-0.0206841826438904,-0.0266681313514709,B
1526528492.34922,0.0477995348588124,-0.128132196334712,1.09999122227348,-0.199290886521339,-0.017460823059082,-0.0326002240180969,B
1526528492.35922,0.0488208207153331,-0.129539883556247,1.09706308036643,-0.184607744216919,-0.0248382985591888,-0.039848804473877,B
1526528492.37262,0.0509813069915369,-0.130360070302855,1.09318506143987,-0.145909532904625,-0.00785982608795166,-0.0538100004196167,B
1526528492.37946,0.0540486572303416,-0.13050094866228,1.08898169853055,-0.103901728987694,0.0135611742734909,-0.0500053763389587,B
1526528492.38955,0.0572617170242955,-0.130208543101641,1.08523551472405,-0.0753616839647293,0.00733558833599091,-0.0374035239219666,B
1526528492.40541,0.0594010018068644,-0.130180266341349,1.08244911685181,-0.0223342068493366,-0.0382601469755173,-0.0156729817390442,B
0,0,0,0,0,0,0,0,0
1526528493.15395,-0.00745985313326395,-0.0724112458022433,0.977490271755471,-0.0499785877764225,0.222909584641457,0.0470953583717346,B
1526528493.16479,-0.00708574149872087,-0.0690872304157525,0.974391849369404,-0.0321157909929752,0.245497137308121,0.0469973087310791,B
1526528493.17371,-0.00896273469374506,-0.0671571170136293,0.971507651517839,-0.000853732228279114,0.255860865116119,0.0753118991851807,B
1526528493.18487,-0.0120951159753164,-0.0670324539377463,0.969381557727627,0.0199564527720213,0.255435943603516,0.00721794366836548,B
1526528493.19399,-0.0147664837672923,-0.0681992047448335,0.968230160041734,0.00873491726815701,0.26255738735199,0.0250476598739624,B
1526528493.20392,-0.0161812053929558,-0.0695060092398817,0.968045492060941,-0.0197319816797972,0.29451784491539,0.0397674441337585,B
1526528493.21396,-0.0160006451251807,-0.0701665966574931,0.968851958351754,-0.0308838915079832,0.305486053228378,0.0607661008834839,B
1526528493.22398,-0.0148045663290928,-0.0700143138060999,0.970537956411351,-0.0394162051379681,0.299854874610901,0.0578655004501343,B
1526528493.23468,-0.0129107715737417,-0.0691030809680292,0.972841568554757,-0.0469501093029976,0.295194447040558,0.0550863146781921,B
1526528493.24415,-0.0105720483152091,-0.0674744691698394,0.975273912674977,-0.0526388511061668,0.284230768680573,0.0724977850914001,B
1526528493.2542,-0.00847274775709995,-0.0655738924006873,0.977222039698106,-0.0535267665982246,0.304773390293121,0.0690887570381165,B
1526528493.26451,-0.00679130828997008,-0.0638992005363508,0.978647648101359,-0.0610631816089153,0.324999272823334,0.0558584928512573,B
1526528493.27413,-0.00505853383399442,-0.0628658727659238,0.979772645143948,-0.0632040426135063,0.335094213485718,0.0445969104766846,B
1526528493.2845,-0.0027625842600611,-0.0626755512023471,0.980777817261904,-0.0498398914933205,0.357119500637054,0.037446141242981,B
1526528493.29427,0.000400541904647807,-0.0634073087595364,0.981925684791165,-0.025271562859416,0.378255039453506,0.0301711559295654,B
1526528493.30448,0.00448672568527247,-0.0648642388504306,0.983662107098552,-0.0105044972151518,0.391342729330063,0.0284656286239624,B
1526528493.31447,0.00950828943915237,-0.0666496122929687,0.986100143548022,-0.00411594100296497,0.395191729068756,0.0399556756019592,B
1526528493.32448,0.0154568351004712,-0.0685349159076495,0.989088822433841,0.00313475169241428,0.386520564556122,0.0524495840072632,B
1526528493.33483,0.0219674639371557,-0.0706377631801044,0.992545256806937,0.00187753327190876,0.364647388458252,0.0515715479850769,B
1526528493.34456,0.0284886194132313,-0.0729536838500102,0.996331737141011,-0.00439166277647018,0.338899940252304,0.044283390045166,B
1526528493.35498,0.0347572196164093,-0.0752715960209043,1.00039155693011,-0.00813204795122147,0.32517483830452,0.0501855611801147,B
1526528493.3648,0.040358936204866,-0.0772042862396983,1.00487022663192,-0.00992383807897568,0.301275104284286,0.061837375164032,B
1526528493.37487,0.0449731448888946,-0.0785846677161647,1.00937273245104,-0.0190166234970093,0.285342007875443,0.0726727843284607,B
1526528493.3857,0.048676213949258,-0.0798650889417251,1.01345763889929,-0.0224856622517109,0.304527640342712,0.0602222681045532,B
1526528493.39497,0.0517570962569056,-0.0815010640237077,1.01724499732397,-0.0141782350838184,0.281473636627197,0.0445250272750854,B
1526528493.40511,0.0544348466598338,-0.0836753920496025,1.02077205695984,0.00956413149833679,0.247644752264023,0.0309291481971741,B
1526528493.41515,0.0572169573292526,-0.0862293585108802,1.02443172716734,0.0291168168187141,0.214338272809982,0.0278573036193848,B
1526528493.42521,0.0600829078805632,-0.0887970321359763,1.02861760630092,0.0276379324495792,0.174884676933289,0.0289765596389771,B
1526528493.43541,0.0626832809286864,-0.0911031888826238,1.03328391487863,0.0284683704376221,0.140590161085129,0.0399481654167175,B
1526528493.44537,0.064827030722087,-0.0932795085026028,1.03802199272252,0.0363605916500092,0.135417103767395,0.0601353049278259,B
1526528493.45544,0.0665975330065963,-0.0958498477243192,1.04274158077458,0.0444138869643211,0.118621803820133,0.0577632188796997,B
1526528493.46595,0.0678712605925425,-0.0990488489753329,1.04741125656478,0.0447874069213867,0.0735678672790527,0.0506231188774109,B
1526528493.47554,0.0687996346730564,-0.102895939464867,1.05162872535936,0.0328603014349937,0.0474167615175247,0.051378607749939,B
1526528493.48549,0.0697237136585202,-0.107389797291955,1.05558883869081,0.0431455969810486,0.00489230453968048,0.049089789390564,B
1526528493.49547,0.0711325476001788,-0.112389265630035,1.06005646256933,0.0444881319999695,-0.0618903562426567,0.041593074798584,B
1526528493.5057,0.0734879784313042,-0.118258300237906,1.06569937112945,0.0302861481904984,-0.103044502437115,0.0297946929931641,B
1526528493.51569,0.0771415430069434,-0.124968798779253,1.07292346901194,0.0288978740572929,-0.152140110731125,0.0265737771987915,B
1526528493.52578,0.0821031451924153,-0.132557045838878,1.08156850388591,0.0253216922283173,-0.204007565975189,0.0234716534614563,B
1526528493.53582,0.0884635854501219,-0.141082011632346,1.0911858197595,0.00939233601093292,-0.263722360134125,0.0113546252250671,B
1526528493.54587,0.0955662842667266,-0.150512609798606,1.1011033755118,-0.0107849538326263,-0.355404555797577,-0.00516641139984131,B
1526528493.55599,0.102367729101099,-0.160862297970595,1.11037313166081,-0.0281768590211868,-0.425062000751495,-0.0465813279151917,B
1526528493.56611,0.108235419999606,-0.171691943029979,1.1185982610436,-0.0611936375498772,-0.466015696525574,-0.0987004041671753,B
1526528493.57614,0.113180171321141,-0.182006023877791,1.12543770799734,-0.0801589265465736,-0.518466234207153,-0.14408665895462,B
1526528493.58612,0.117288658794914,-0.191183225992063,1.1306068243053,-0.0812269374728203,-0.545840382575989,-0.178743302822113,B
1526528493.59613,0.120620141070873,-0.199025810527199,1.13411848825956,-0.0826131924986839,-0.547598481178284,-0.207801461219788,B
1526528493.60628,0.12308522713559,-0.205591886574974,1.1364992940618,-0.0619615390896797,-0.559279680252075,-0.225807726383209,B
1526528493.61624,0.125545501921932,-0.210864417313686,1.13825094205321,-0.0437376350164413,-0.553299427032471,-0.229537606239319,B
1526528493.62637,0.128596035766068,-0.215179650071275,1.13991894646938,-0.0464574843645096,-0.543707847595215,-0.23335337638855,B
1526528493.63645,0.132033377811987,-0.218947535958957,1.14189267797006,-0.0423865467309952,-0.561593294143677,-0.257177174091339,B
1526528493.64644,0.135482778401459,-0.221635220722199,1.14432369460696,-0.0391592234373093,-0.595069289207458,-0.263304531574249,B
1526528493.65655,0.138502354169862,-0.222303352536714,1.14682768536266,-0.0406074374914169,-0.624361753463745,-0.250272154808044,B
1526528493.66921,0.140738046888255,-0.220290331568646,1.14915626959704,-0.0561192631721497,-0.641089856624603,-0.220810770988464,B
1526528493.67674,0.141928298232209,-0.215886396261633,1.15082842022469,-0.0788730829954147,-0.646891534328461,-0.195922255516052,B
1526528493.68663,0.141866771759847,-0.209925838595384,1.15169545495012,-0.0847289711236954,-0.660490036010742,-0.172358572483063,B
1526528493.69671,0.140686034790628,-0.20319026800614,1.15147336278377,-0.0971002876758575,-0.646863341331482,-0.156469643115997,B
