Time,Roll,Pitch,Yaw,AccelX,AccelY,AccelZ,Letter,Name
1526529543.28198,0.0181737385638081,0.00893463077340855,1.38930949305409,-0.0654437392950058,0.299522876739502,0.139687538146973,D
1526529543.29599,0.0166217514467231,0.00775673412824668,1.3909642083948,-0.0671423375606537,0.28391021490097,0.141708016395569,D
1526529543.30147,0.0152798955379619,0.00676271335397674,1.39191479342075,-0.0520526319742203,0.251467853784561,0.142697930335999,D
1526529543.31157,0.0138035587635012,0.00615591722044169,1.39179732134316,-0.0508054234087467,0.246069818735123,0.137199640274048,D
1526529543.32367,0.0119858952233099,0.00558808726468154,1.39089656745105,-0.0656200647354126,0.27370023727417,0.115818321704865,D
1526529543.33173,0.0100984521936096,0.00466002412835443,1.38973905175724,-0.0827757865190506,0.301550269126892,0.0782920122146606,D
1526529543.34162,0.00934754031961823,0.00303481370064672,1.38876707726623,-0.0909208506345749,0.309065073728561,0.0460942983627319,D
1526529543.36613,0.0105624619767872,0.000259438285230223,1.38808687342947,-0.0747865065932274,0.30473330616951,0.0165152549743652,D
1526529543.36747,0.0140057569550961,-0.00383828756962893,1.38753875815447,-0.0631995350122452,0.306205064058304,-0.0101609826087952,D
1526529543.37282,0.0191706629337752,-0.00937959921998431,1.38704799004432,-0.0579412281513214,0.318638741970062,-0.0340717434883118,D
1526529543.38197,0.0249283344899679,-0.0159519102289844,1.38654856399902,-0.0542347133159637,0.322381883859634,-0.06202232837677,D
1526529543.39212,0.0312971066710999,-0.0229072785072781,1.38607045604669,-0.051700048148632,0.320570051670074,-0.0787091255187988,D
1526529543.40219,0.0375540789573427,-0.0297649154692994,1.38560297529615,-0.0392070859670639,0.309488147497177,-0.106875836849213,D
1526529543.41215,0.0433716387160422,-0.0357714825893144,1.38522416245396,-0.00794517248868942,0.26825225353241,-0.10590386390686,D
1526529543.42619,0.0482838420285461,-0.0399546880748564,1.38480308612307,0.0183170139789581,0.235156655311584,-0.0904330611228943,D
1526529543.43214,0.0517159238830136,-0.0419181835034694,1.38421701275993,0.00979967787861824,0.236856907606125,-0.0893571972846985,D
1526529543.44234,0.054031178314566,-0.0422593008612352,1.38344545797533,-0.029359508305788,0.242131322622299,-0.109070777893066,D
1526529543.45291,0.0557932665661079,-0.0416449132394243,1.38279794154898,-0.0323089919984341,0.20539166033268,-0.106486678123474,D
1526529543.46252,0.0576932196994734,-0.040201284435275,1.38259949171095,-0.00782520323991776,0.155656099319458,-0.0645737051963806,D
1526529543.47416,0.0601955601920202,-0.0385208641893661,1.38292709904254,0.0227101221680641,0.108751237392426,-0.0147892236709595,D
1526529543.48305,0.0634048116681136,-0.0373820246998373,1.38389279316959,0.0472318530082703,0.0476181358098984,0.0292452573776245,D
1526529543.4949,0.0674689398318208,-0.0376185081864211,1.38509522134274,0.0295690149068832,0.0174593329429626,0.0612736940383911,D
1526529543.50273,0.0726418365402495,-0.0399467930191561,1.38600302074253,0.00456734001636505,-0.011142835021019,0.0776675343513489,D
1526529543.51273,0.0784984905993937,-0.044511028692623,1.38654856932389,0.00288230180740356,-0.0661180317401886,0.0899578332901001,D
1526529543.52889,0.0846915702283795,-0.0503644709093418,1.38690068694001,0.0193071812391281,-0.127140671014786,0.12877357006073,D
1526529543.53288,0.090283359750358,-0.0571481236623476,1.38681118912236,0.0405406281352043,-0.131793528795242,0.128746569156647,D
1526529543.54299,0.094815808459625,-0.0649355774692713,1.38700589398412,0.0277638882398605,-0.128976866602898,0.0948964357376099,D
1526529543.55316,0.0987030044209332,-0.0734489004471623,1.38801442459941,0.0266923531889915,-0.146625071763992,0.0636014938354492,D
1526529543.56291,0.102121608197671,-0.0821175969202029,1.38973173180295,0.052909828722477,-0.178293034434319,0.0364360809326172,D
1526529543.57358,0.105467846062702,-0.0898338640307487,1.39179465019067,0.0664930120110512,-0.213629707694054,0.0325019359588623,D
1526529543.58292,0.108918612949428,-0.0967166551988507,1.39396103655075,0.0710953995585442,-0.230019301176071,0.0112180709838867,D
1526529543.59287,0.112613523751473,-0.10352199494717,1.39603129160753,0.0561031699180603,-0.24289408326149,-0.00994491577148438,D
1526529543.60304,0.116379375562225,-0.110062730784885,1.3980702235024,0.0607179552316666,-0.280494958162308,0.00211828947067261,D
1526529543.61311,0.119108713596678,-0.115771684868662,1.40017723129383,0.089670792222023,-0.319553792476654,0.016587495803833,D
1526529543.62314,0.120325928564731,-0.12041133220115,1.40303435386997,0.0907027423381805,-0.352862864732742,0.0139167904853821,D
1526529543.63317,0.120721890902669,-0.124017721779976,1.40690598849293,0.0679960623383522,-0.382565438747406,-0.00417554378509521,D
1526529543.6432,0.121372410951405,-0.12724090780685,1.41161835150865,0.0527404621243477,-0.425985366106033,-0.0360112190246582,D
1526529543.65422,0.123077699491463,-0.130940489426366,1.41676939948632,0.0510132387280464,-0.485638648271561,-0.0653156042098999,D
1526529543.66344,0.126278929736416,-0.135204464013523,1.42198686695669,0.0314863249659538,-0.515865921974182,-0.0862147808074951,D
1526529543.67336,0.130570542742638,-0.140027351457564,1.42696006411419,0.0141409337520599,-0.544340074062347,-0.104215264320374,D
1526529543.68348,0.134708830380195,-0.144587654731943,1.43212565261332,0.0228307992219925,-0.610728681087494,-0.101140916347504,D
1526529543.69355,0.137924572914682,-0.147483567467166,1.43735924379682,0.0215518623590469,-0.642631232738495,-0.0671702027320862,D
1526529543.70357,0.139221495641225,-0.147664873493761,1.44243749607305,0.0158904939889908,-0.680560827255249,-0.0353608727455139,D
1526529543.71367,0.138125504352547,-0.145235017886331,1.44671078586127,-0.00606441497802734,-0.688517689704895,-0.021248996257782,D
1526529543.72388,0.135112223588479,-0.140794242735074,1.44973430420999,-0.0496436506509781,-0.657541453838348,-0.0195748805999756,D
1526529543.73377,0.130737075386742,-0.13507653032816,1.45102249889696,-0.0781215727329254,-0.614387214183807,-0.0251793265342712,D
1526529543.74382,0.125294655872769,-0.129057996263085,1.45038822547828,-0.0969807803630829,-0.56182074546814,-0.053916871547699,D
1526529543.75449,0.119560787247474,-0.123597233949008,1.44823281528348,-0.0899543911218643,-0.529715895652771,-0.0987125039100647,D
1526529543.76396,0.113964304145151,-0.118415165325379,1.44561274408714,-0.047857940196991,-0.528096497058868,-0.129319608211517,D
1526529543.77406,0.108623288868955,-0.112291302915531,1.4432596889336,0.00273133814334869,-0.514734923839569,-0.11882883310318,D
1526529543.78389,0.102871253474654,-0.104153985086861,1.44176558040067,0.0325253903865814,-0.473335266113281,-0.0810810923576355,D
1526529543.79428,0.0963779638954049,-0.094053283623776,1.44165599488485,0.020544745028019,-0.407055556774139,-0.0475531816482544,D
1526529543.80422,0.0891628356363048,-0.0836548792211005,1.44303560278349,-0.0276524126529694,-0.323120325803757,-0.0564667582511902,D
1526529543.8147,0.0821950320568013,-0.0747117940250703,1.44524749969569,-0.106913149356842,-0.244243741035461,-0.0873788595199585,D
1526529543.82438,0.0761918543873838,-0.0683897423108309,1.44663643461719,-0.164395421743393,-0.16402430832386,-0.139814615249634,D
1526529543.83438,0.0711391324388017,-0.0648085743549259,1.44596265657662,-0.18355505168438,-0.121525913476944,-0.20309442281723,D
1526529543.84443,0.0665405956255538,-0.0626832805522918,1.44315013690284,-0.167221516370773,-0.110386990010738,-0.231742203235626,D
1526529543.85462,0.062109183532869,-0.0594130179720108,1.43896269812958,-0.156671047210693,-0.110968038439751,-0.217495322227478,D
1526529543.86454,0.057583435279975,-0.0528798825581264,1.43399880922873,-0.152624979615211,-0.110228285193443,-0.172074556350708,D
1526529543.87461,0.0525216482793555,-0.0427584581532838,1.42843999342596,-0.171223938465118,-0.0882166177034378,-0.108508110046387,D
1526529543.88472,0.0466152272897686,-0.030843711312565,1.42225004915972,-0.212576538324356,-0.0140846688300371,-0.0659840106964111,D
1526529543.89479,0.0400763529255097,-0.0191442334408088,1.41606847922661,-0.260746151208878,0.0582647733390331,-0.0196933150291443,D
1526529543.90481,0.0334793516267999,-0.00877979964366918,1.41041002615733,-0.289499044418335,0.128259494900703,0.0228538513183594,D
1526529543.91497,0.0278224252705585,-0.000714690669280927,1.40489436911732,-0.327287822961807,0.203631013631821,0.0309390425682068,D
1526529543.92503,0.0241053628230965,0.00447868023847966,1.39896385608615,-0.392053216695786,0.246956080198288,-0.00518333911895752,D
1526529543.9354,0.0229012301581341,0.00702644867862259,1.3912764989503,-0.43146800994873,0.276817053556442,-0.035595715045929,D
1526529543.945,0.0230722769159441,0.00783760207637129,1.38082495609488,-0.396619945764542,0.293665170669556,-0.0455543994903564,D
1526529543.95613,0.0229868850804319,0.00864970484146278,1.36799660754568,-0.349934071302414,0.294645071029663,-0.024975061416626,D
1526529543.96527,0.021209535492952,0.0106692372787675,1.35386311918159,-0.339184641838074,0.371325761079788,-0.0101237297058105,D
1526529543.97518,0.0170708022635065,0.0142080123698747,1.33977090597301,-0.341134399175644,0.450090110301971,-0.00671637058258057,D
1526529543.9894,0.0116331252619608,0.0195719351961397,1.32715990744263,-0.338382333517075,0.473428100347519,0.0200197696685791,D
1526529543.99553,0.00615363633549059,0.0261458828586944,1.31592893997879,-0.291796028614044,0.494450390338898,0.0347650051116943,D
1526529544.00561,0.00126947364909291,0.0326403894370312,1.30526808305764,-0.239168584346771,0.49778351187706,0.0439001321792603,D
1526529544.01552,-0.00232367752665348,0.038074806659809,1.29496499950685,-0.23145791888237,0.501658141613007,0.0603229403495789,D
1526529544.02567,-0.0043088930015445,0.042277499738917,1.28480630726676,-0.222654193639755,0.515974044799805,0.0908177495002747,D
1526529544.03569,-0.00492844363292703,0.0452894478731174,1.27473835551314,-0.190160244703293,0.519929111003876,0.123092710971832,D
1526529544.04577,-0.00470995302142614,0.0470753808885,1.26486251398849,-0.146845579147339,0.509185671806335,0.145655393600464,D
1526529544.05706,-0.00426733383417193,0.0478207372895115,1.25572910198564,-0.107706546783447,0.487896502017975,0.16905951499939,D
1526529544.06593,-0.00396177479702385,0.0480014819608299,1.24749976808729,-0.0923105031251907,0.472894549369812,0.186752319335938,D
1526529544.07594,-0.0040354153194106,0.0480625025982944,1.24022098217268,-0.0717749148607254,0.45162370800972,0.20048201084137,D
1526529544.08798,-0.00475480543293791,0.0483141034294647,1.23376917294183,-0.0517845749855042,0.42846804857254,0.210720598697662,D
1526529544.09615,-0.00612605824280915,0.0487052236830795,1.22795942664546,-0.0359497293829918,0.427042901515961,0.210282206535339,D
1526529544.10611,-0.0079856434976252,0.0488307264763039,1.22223415859366,-0.0230298191308975,0.435011267662048,0.193951368331909,D
1526529544.11615,-0.0101318574688415,0.048144388896012,1.21640517814851,0.00694611668586731,0.412993967533112,0.173381090164185,D
1526529544.12633,-0.01241864639772,0.0464908624241061,1.21018231541854,0.0551752932369709,0.383922249078751,0.167223215103149,D
1526529544.13615,-0.0146198708273303,0.0445169433319798,1.20392418106286,0.103990852832794,0.357368439435959,0.191819369792938,D
1526529544.14633,-0.0172144079837125,0.0424065525940028,1.19764569315126,0.148301601409912,0.345479160547256,0.198995649814606,D
1526529544.15652,-0.0205733542207729,0.039679236632953,1.19172683562698,0.176973551511765,0.334529668092728,0.181160867214203,D
1526529544.16647,-0.0249948672616169,0.0359706091516327,1.18618881310536,0.213681548833847,0.311292439699173,0.154024481773376,D
1526529544.17654,-0.0303041331163588,0.031328394934743,1.1810144719607,0.234462484717369,0.305691570043564,0.122707605361938,D
1526529544.18782,-0.0359142761106802,0.0260532111867005,1.1762342583112,0.240377396345139,0.285999000072479,0.0840379595756531,D
1526529544.1967,-0.0407421082268198,0.0203932236712461,1.17161294573235,0.240978717803955,0.259313941001892,0.0330810546875,D
1526529544.2067,-0.0440643245983691,0.0145292685612065,1.16677454008973,0.258385628461838,0.219393253326416,-0.0060199499130249,D
1526529544.21681,-0.0460469775930351,0.00879561517952319,1.16166213587319,0.276238262653351,0.189841032028198,-0.0142822265625,D
1526529544.23061,-0.0469997102968283,0.00351260999208789,1.15685462189818,0.281296074390411,0.175601229071617,0.00357401371002197,D
1526529544.2377,-0.0474231283947772,-0.00155510862793553,1.15253329056185,0.291713774204254,0.170075744390488,0.0166815519332886,D
1526529544.24776,-0.0473123618144583,-0.00713799033646921,1.14895165007104,0.29820904135704,0.142230361700058,0.0151824355125427,D
1526529544.26284,-0.0466924164463876,-0.0136233740646002,1.14577403252472,0.311380594968796,0.0961487740278244,0.0122451186180115,D
1526529544.26796,-0.0456881836203284,-0.0210677560426822,1.14289098870872,0.330055475234985,0.0521149560809135,0.00888186693191528,D
1526529544.27745,-0.0448133037780726,-0.02907525277417,1.14017865337108,0.344660341739655,0.0145842395722866,0.00258690118789673,D
1526529544.29146,-0.0441559400716276,-0.0370783640374062,1.13804724963018,0.338041305541992,0.00362532213330269,-0.0135632157325745,D
1526529544.29835,-0.0433680006323796,-0.0450714561998485,1.1363682590399,0.32193586230278,0.00236811861395836,-0.0595720410346985,D
1526529544.30829,-0.0419039595779695,-0.0529437161207459,1.13562272302679,0.31121164560318,-0.0333572179079056,-0.107181966304779,D
1526529544.31859,-0.0391087378175396,-0.0601951734655453,1.13540541568446,0.31257227063179,-0.0640955939888954,-0.130275249481201,D
1526529544.32991,-0.0353723463791901,-0.0666890520232314,1.13571690283902,0.319420278072357,-0.0841109454631805,-0.143365204334259,D
1526529544.33873,-0.0312591516037232,-0.0725006217837523,1.13640861475969,0.315305858850479,-0.09831602871418,-0.145555078983307,D
1526529544.34847,-0.0272481937040781,-0.0776095919113091,1.13790185434866,0.325731545686722,-0.108980067074299,-0.134010672569275,D
1526529544.36136,-0.0238841661659013,-0.0821135292583453,1.14026173877556,0.327283471822739,-0.0959983319044113,-0.127493977546692,D
1526529544.36803,-0.0212545997356778,-0.0863522956335694,1.14403489749206,0.321955054998398,-0.0846733599901199,-0.133620262145996,D
1526529544.37818,-0.0192553181481687,-0.0902205275342814,1.14915082461823,0.317469894886017,-0.0898998230695724,-0.142832040786743,D
1526529544.39382,-0.0170160654371096,-0.0933142832360681,1.15553663150464,0.29750457406044,-0.0945827290415764,-0.146050572395325,D
1526529544.39891,-0.013694872925865,-0.095630069240568,1.16263443448394,0.291921675205231,-0.105478882789612,-0.148644328117371,D
1526529544.40876,-0.00856473324614481,-0.0976055658492716,1.17045874482079,0.279703050851822,-0.110237523913383,-0.146306157112122,D
1526529544.43173,-0.00170868516080503,-0.099624053197798,1.17897327571505,0.264761745929718,-0.109759017825127,-0.123688459396362,D
1526529544.43247,0.00603320905031569,-0.101558608959656,1.18844335341959,0.248361930251122,-0.0991410762071609,-0.0879954695701599,D
1526529544.43935,0.0138749695150835,-0.103232705270931,1.19878992413774,0.227059334516525,-0.0930396839976311,-0.0626857280731201,D
1526529544.44911,0.0212899829202176,-0.104362613733656,1.21015645038064,0.207800835371017,-0.105989068746567,-0.0370383262634277,D
1526529544.46133,0.0279012336088607,-0.104609976696097,1.22215673618906,0.184870854020119,-0.120624117553234,-0.0199375748634338,D
1526529544.46958,0.0336610442746488,-0.10415684156699,1.2348166667477,0.152776479721069,-0.12794017791748,-0.0228132605552673,D
1526529544.47919,0.0388504835266068,-0.103273941252253,1.24759817357041,0.118852198123932,-0.12599390745163,-0.0339564085006714,D
1526529544.49787,0.044018038930804,-0.102359166876371,1.26024645732821,0.0961190685629845,-0.144111663103104,-0.0503261089324951,D
1526529544.49877,0.0495329060092589,-0.101668219212787,1.27215112131711,0.0708754658699036,-0.146170899271965,-0.0697994828224182,D
1526529544.50895,0.0559472755375699,-0.101353234495592,1.28316670003112,0.0313287079334259,-0.138960555195808,-0.0851033926010132,D
1526529544.51977,0.0629236434539557,-0.10167825074756,1.29288865110463,0.00921998172998428,-0.145311117172241,-0.109489560127258,D
1526529544.52885,0.0703163074486823,-0.102444692667048,1.30136589454422,-0.015599250793457,-0.138184785842896,-0.113490283489227,D
1526529544.54067,0.0775061104700722,-0.103190115694649,1.30884219094878,-0.0242822915315628,-0.132029294967651,-0.106709420681,D
1526529544.54978,0.0838972209383324,-0.103304346722671,1.31599125298103,-0.0409631729125977,-0.103212259709835,-0.0909067392349243,D
1526529544.56452,0.0890667169608508,-0.102469859416434,1.32347341761109,-0.0512967556715012,-0.0805163383483887,-0.0801876187324524,D
1526529544.56981,0.0928199506942963,-0.100148947682048,1.33179800539091,-0.0571118295192719,-0.0520385056734085,-0.0523541569709778,D
1526529544.58008,0.0954906714760543,-0.0961441333030286,1.3410013213497,-0.077205091714859,-0.017260730266571,-0.048139214515686,D
1526529544.59602,0.0980426917499748,-0.0920332100398835,1.35128390474563,-0.106992915272713,-0.00993312895298004,-0.0670432448387146,D
1526529544.60002,0.101266876049835,-0.0880575824335413,1.36244592427589,-0.143533617258072,-0.0183332338929176,-0.0541438460350037,D
1526529544.61001,0.105419874556545,-0.083513579364493,1.37432674516441,-0.199035227298737,-0.0300565510988235,-0.0413355231285095,D
1526529544.62156,0.110212303389098,-0.0787852589035893,1.38630922873949,-0.241453558206558,-0.0355366691946983,-0.0375775098800659,D
1526529544.63039,0.115282788691585,-0.0743738712997122,1.39807364985384,-0.27610182762146,-0.0326946079730988,-0.0151363611221313,D
1526529544.64054,0.12025610883794,-0.0701742007075712,1.4091497320766,-0.303966879844666,-0.0243707746267319,0.0207757949829102,D
1526529544.6504,0.124776658039446,-0.0662471478351924,1.41911311580146,-0.329304039478302,-0.00647579878568649,0.0469032526016235,D
1526529544.66212,0.128573211340035,-0.0627023134507872,1.42763559886553,-0.351066052913666,0.000433862209320068,0.0602620244026184,D
1526529544.67046,0.131623262105568,-0.0598266851241426,1.43474861816893,-0.357815384864807,0.0144277475774288,0.0538923740386963,D
1526529544.68049,0.134300700479261,-0.0575334428404572,1.44059386075281,-0.339928835630417,0.0174342021346092,0.0489410758018494,D
1526529544.69503,0.136724725988844,-0.0553731582450504,1.44530646578919,-0.311123788356781,0.0115649290382862,0.0395185947418213,D
1526529544.70088,0.139279099372461,-0.0531362352206233,1.44894101100044,-0.294608652591705,0.0162399671971798,0.0144465565681458,D
1526529544.71084,0.14286545172013,-0.0506408089389965,1.45175081611754,-0.28093034029007,0.0146884471178055,-0.00442254543304443,D
1526529544.72115,0.147423230378768,-0.0476540053120249,1.45375099308325,-0.257471352815628,0.0156574882566929,-0.00295209884643555,D
1526529544.73087,0.151737969090008,-0.0445656652787305,1.45523314631332,-0.225698053836823,0.0234422497451305,0.013285219669342,D
0,0,0,0,0,0,0,0,0
1526529545.31432,-0.0180267579480331,-0.00919736737722949,1.33712041596945,-0.0469163879752159,0.358600616455078,-0.00327175855636597,D
1526529545.32566,-0.0203277629234101,-0.00990564679709822,1.334527876579,-0.0339501462876797,0.356976836919785,-0.00193411111831665,D
1526529545.33444,-0.0220718714480794,-0.011291535424468,1.33232417448212,-0.0204880908131599,0.353622645139694,-0.0240499973297119,D
1526529545.34452,-0.0229147893089231,-0.0132343833638512,1.3303992327171,-0.0353777967393398,0.36956325173378,-0.0183554291725159,D
1526529545.36016,-0.0228325586258772,-0.0154865486160092,1.32883173011018,-0.0397637188434601,0.380128681659698,-0.0121755599975586,D
1526529545.36432,-0.0221807482153189,-0.0177256274113712,1.32775799069493,-0.0414537042379379,0.373632729053497,-0.00186789035797119,D
1526529545.3746,-0.0213666045592678,-0.0196976113116765,1.32717184855412,-0.0325026884675026,0.373080164194107,0.00656634569168091,D
1526529545.3841,-0.0207947496590796,-0.0213218369996819,1.32698908941013,-0.0245758555829525,0.385784268379211,0.00413417816162109,D
1526529545.39494,-0.0201274285030527,-0.0226337621249143,1.32758677191725,-0.0372979082167149,0.394909679889679,-0.000214517116546631,D
1526529545.40517,-0.0190570815671205,-0.0238419992075412,1.32906239607285,-0.0407334230840206,0.401087015867233,-0.0075610876083374,D
1526529545.41511,-0.017448793542916,-0.0252070374974196,1.33127118712218,-0.0294478926807642,0.394000351428986,-0.0176207423210144,D
1526529545.43539,-0.0148200398883981,-0.0267334022567531,1.33393740850196,-0.0156576000154018,0.366290420293808,-0.0163972973823547,D
1526529545.43572,-0.0109749194541849,-0.0286345151661534,1.3369274432529,-0.00280848611146212,0.350092530250549,-0.0200777053833008,D
1526529545.44448,-0.00524262164568914,-0.0311787156924812,1.34009837551463,0.00775775033980608,0.339538604021072,-0.0225639343261719,D
1526529545.4549,0.00286394510105636,-0.0348318694340403,1.34345428653922,0.0206363312900066,0.326289683580399,-0.0333102345466614,D
1526529545.46467,0.0131382235477531,-0.0400529563748328,1.34687707851278,0.0138197122141719,0.31826463341713,-0.0554841756820679,D
1526529545.47466,0.0245307495385239,-0.0466435522832259,1.35016612267715,-0.00759487226605415,0.298939168453217,-0.0764155983924866,D
1526529545.4847,0.0355049557772718,-0.0533144462062049,1.35310074875988,-0.0204781852662563,0.259699076414108,-0.0796869397163391,D
1526529545.49571,0.0448175979653279,-0.0580895225162811,1.35573745560511,-0.0107762217521667,0.207156151533127,-0.0607336163520813,D
1526529545.50604,0.0517437762480308,-0.059518923600844,1.35803865990005,0.00565239042043686,0.164911955595016,-0.0465485453605652,D
1526529545.51604,0.0565370897842273,-0.0576765550771531,1.35992033651069,-0.00219853594899178,0.129718095064163,-0.0407183170318604,D
1526529545.52861,0.0594778421429294,-0.053673693709127,1.36219663432254,-0.0207829587161541,0.102739408612251,-0.0184493660926819,D
1526529545.5363,0.062295242956594,-0.0491649751421104,1.3647020598119,-0.00863664224743843,0.095920130610466,0.00167602300643921,D
1526529545.54604,0.0661316335120709,-0.045832048571025,1.36712069181201,-0.0287520885467529,0.0911621451377869,0.0222179293632507,D
1526529545.5621,0.0714600252448865,-0.045273733662828,1.36901183011386,-0.0446384400129318,0.0853569656610489,0.0254021883010864,D
1526529545.56599,0.0782653715903303,-0.0481131888002889,1.37022280052237,-0.031311571598053,0.0470286682248116,0.0379909873008728,D
1526529545.57651,0.0857429059894636,-0.0539322959551669,1.37085144503164,-0.00236822664737701,0.0102265328168869,0.05376136302948,D
1526529545.59537,0.0931483676946682,-0.0614868290488793,1.37149790038359,0.0377314984798431,-0.0366983339190483,0.085564911365509,D
1526529545.59581,0.0990029928012369,-0.0692866720519463,1.37271411154825,0.0635814815759659,-0.0557729974389076,0.09311842918396,D
1526529545.60621,0.103361172468845,-0.0763686490949605,1.37482878821708,0.0308973044157028,-0.0574345737695694,0.0690496563911438,D
1526529545.61572,0.107244295986881,-0.0823886666632535,1.37740353024496,0.00961147248744965,-0.0856829434633255,0.0417550802230835,D
1526529545.626,0.110450179886189,-0.0876221034382753,1.37972114894221,0.0233300551772118,-0.12164393812418,0.020321249961853,D
1526529545.63563,0.113206635334108,-0.0925702334755882,1.38174047150672,0.00928381085395813,-0.135055869817734,0.00568699836730957,D
1526529545.64575,0.116168969616342,-0.0979437165187095,1.38372698648232,-0.0246083289384842,-0.132989227771759,-0.00791454315185547,D
1526529545.65673,0.119281766571872,-0.10434834071068,1.38578389505222,-0.0268143489956856,-0.146548002958298,-0.0263155698776245,D
1526529545.66585,0.122532995141727,-0.111688014799627,1.38796642737804,-0.0205891951918602,-0.175313979387283,-0.0316260457038879,D
1526529545.67592,0.125904149930049,-0.119051059734655,1.3899884421914,0.0115627720952034,-0.21520559489727,-0.0047905445098877,D
1526529545.68612,0.128704501498191,-0.125636121166445,1.39176759557815,0.0534177720546722,-0.242493361234665,0.00687682628631592,D
1526529545.69619,0.130950831545492,-0.131752572959512,1.39320980541081,0.0528362840414047,-0.243478044867516,0.00187325477600098,D
1526529545.70698,0.132644290279775,-0.137223109468067,1.3947140184606,0.0358119159936905,-0.239637106657028,0.00799041986465454,D
1526529545.71616,0.133118044748641,-0.142201759306055,1.39607457864632,0.0604174137115479,-0.232009246945381,-0.00334852933883667,D
1526529545.72628,0.132234936639492,-0.146796091519746,1.39771163671768,0.0603030472993851,-0.245222672820091,-0.0221686959266663,D
1526529545.73613,0.130776122500056,-0.15025567097162,1.40006094402548,0.0579552501440048,-0.288729012012482,-0.0287584066390991,D
1526529545.74639,0.130005594236229,-0.152357014530095,1.40325178660715,0.0835777521133423,-0.338871538639069,-0.0402954816818237,D
1526529545.75802,0.131704704787462,-0.154082589680386,1.40699515429825,0.121147081255913,-0.384552717208862,-0.0732768774032593,D
1526529545.76649,0.135391321730853,-0.155953286319928,1.41163502396462,0.0724400728940964,-0.44613915681839,-0.0698062181472778,D
1526529545.77654,0.139643415811084,-0.157620127433882,1.41687965276012,0.0422076880931854,-0.505021274089813,-0.0203315019607544,D
1526529545.79275,0.142827484166398,-0.15856461387755,1.4223276548524,0.0351330190896988,-0.590609729290009,0.0234664678573608,D
1526529545.79671,0.144224742100849,-0.158099649944089,1.42694288726066,0.035572737455368,-0.631517171859741,0.0549883842468262,D
1526529545.80711,0.144477845506544,-0.156297591831068,1.43023712510914,0.0127475261688232,-0.633872449398041,0.045176088809967,D
1526529545.81677,0.143226672550287,-0.15387120117043,1.43268488469464,-0.0442798286676407,-0.618459463119507,0.0135281682014465,D
1526529545.82685,0.140174879092448,-0.151408745011606,1.43484407271827,-0.0794173032045364,-0.596082389354706,-0.0161622762680054,D
1526529545.83684,0.135845033149244,-0.149035843433987,1.43672628081386,-0.0991210639476776,-0.574464321136475,-0.0590600371360779,D
1526529545.84693,0.131574121901969,-0.146746544524858,1.438242369307,-0.107232242822647,-0.55683445930481,-0.116817355155945,D
1526529545.85804,0.128552306479227,-0.14459846649875,1.43919236809234,-0.0957632213830948,-0.555822968482971,-0.169282078742981,D
1526529545.86706,0.12677232014594,-0.141999612755769,1.43959569400154,-0.0643236935138702,-0.560727596282959,-0.176929414272308,D
1526529545.87721,0.125071449578837,-0.137638572153034,1.43949971671182,-0.0361787900328636,-0.549542665481567,-0.138761401176453,D
1526529545.89932,0.122187743037311,-0.130229581486723,1.43922679808117,-0.0149558335542679,-0.530572831630707,-0.0776126980781555,D
1526529545.90008,0.117235935043164,-0.119391530218433,1.43916718752457,-0.0150454342365265,-0.496641039848328,-0.0226926803588867,D
1526529545.90961,0.109900942856739,-0.106059797551308,1.43964725352284,-0.0296568050980568,-0.416560530662537,-0.00357681512832642,D
1526529545.91823,0.100537510739015,-0.0921060288504588,1.44066181502147,-0.0829139798879623,-0.314098060131073,-0.0335742235183716,D
1526529545.92852,0.0893826923732594,-0.078958221323718,1.442337611599,-0.123317889869213,-0.246844947338104,-0.0587460994720459,D
1526529545.93843,0.0772346593899927,-0.067527299629068,1.44424972014705,-0.121552966535091,-0.180146887898445,-0.0979658365249634,D
1526529545.9489,0.0661564236822319,-0.0582944990812723,1.44640131701675,-0.126863181591034,-0.153064340353012,-0.133078634738922,D
1526529545.9591,0.0574203818051131,-0.05061975107261,1.44911715396241,-0.133670300245285,-0.151519760489464,-0.123272955417633,D
1526529545.96842,0.0505495067026218,-0.0437153433448097,1.45200231170995,-0.122531712055206,-0.134277582168579,-0.0723150968551636,D
1526529545.9785,0.0445186422724641,-0.0362869266429842,1.4547298052297,-0.117381133139133,-0.125268220901489,0.0195155143737793,D
1526529545.99058,0.0379390813983817,-0.0270654430193661,1.45712430254632,-0.116681955754757,-0.104057990014553,0.108030021190643,D
1526529545.99865,0.0292101515881196,-0.0161358571015449,1.4588395473452,-0.144665449857712,-0.0297154784202576,0.141334772109985,D
1526529546.00862,0.0176457822301223,-0.00461694931226424,1.4593636796242,-0.238927632570267,0.0739353150129318,0.118028223514557,D
1526529546.02007,0.00458771192842498,0.00637793690065827,1.45833346581068,-0.30678790807724,0.156524375081062,0.0799862146377563,D
1526529546.02902,-0.00927110595449889,0.015680512203759,1.45506399820394,-0.307212710380554,0.214715510606766,0.0210743546485901,D
1526529546.03932,-0.0227712858309195,0.022578757140739,1.4492326954724,-0.299257963895798,0.235162287950516,-0.0141249299049377,D
1526529546.04887,-0.0349174359199259,0.0274161668359082,1.44107255357943,-0.287307381629944,0.226143196225166,-0.0131616592407227,D
1526529546.06071,-0.0450901307819079,0.0310200039781738,1.43121289232176,-0.272466957569122,0.220956429839134,0.0158980488777161,D
1526529546.06919,-0.0525740187502342,0.0342494737307816,1.42033987115227,-0.250123828649521,0.234972149133682,0.0684672594070435,D
1526529546.07934,-0.0570161480039929,0.0372485738055961,1.40895762339379,-0.237197935581207,0.28337949514389,0.0990161299705505,D
1526529546.09036,-0.05852280903306,0.0389345153635692,1.39686222943623,-0.255229830741882,0.372573375701904,0.0662875771522522,D
1526529546.0993,-0.0573716812663454,0.0378285039056717,1.38383178394013,-0.270947873592377,0.428627580404282,-0.00414478778839111,D
1526529546.10919,-0.0552629559605694,0.0330091490911436,1.37010423910374,-0.262803673744202,0.424177467823029,-0.07093346118927,D
1526529546.12017,-0.0540292691872699,0.0249175981364887,1.35619654030391,-0.244674056768417,0.412808686494827,-0.0953208208084106,D
1526529546.12955,-0.0538120597727262,0.0155869773422157,1.34195905110798,-0.234367415308952,0.410163372755051,-0.0643129348754883,D
1526529546.14033,-0.0542171049814003,0.00766520175097948,1.32739973042001,-0.205271497368813,0.416173428297043,-0.0287966728210449,D
1526529546.1496,-0.0552916437201191,0.0029332333797863,1.31261510344883,-0.158771798014641,0.416354864835739,-0.00395864248275757,D
1526529546.16293,-0.0568245493208978,0.0015940682082323,1.2982310269792,-0.135909348726273,0.432746410369873,-4.36902046203613e-05,D
1526529546.16921,-0.0582066866840053,0.00240306357189145,1.28418742242825,-0.124474048614502,0.464118748903275,-0.0193355679512024,D
1526529546.17918,-0.0589750132474374,0.00370341252214198,1.27089240648224,-0.1025280803442,0.460124313831329,-0.0372830629348755,D
1526529546.19075,-0.0590230235189413,0.0044003626191393,1.25830293261326,-0.0859397873282433,0.450887769460678,-0.0409660935401917,D
1526529546.19984,-0.0581574390538642,0.00422513709729678,1.24652496301894,-0.0808071345090866,0.458708167076111,-0.0335904359817505,D
1526529546.21005,-0.0563116717860248,0.00346672477944498,1.23537165607742,-0.0667042583227158,0.440814137458801,-0.0108531713485718,D
1526529546.22091,-0.0539023983200124,0.00248007081364212,1.22530381129054,-0.0419795773923397,0.417763262987137,0.014856219291687,D
1526529546.23006,-0.0511645995079614,0.00175664557287046,1.21606040636364,-0.0227561146020889,0.40472599864006,0.0541097521781921,D
1526529546.24035,-0.0480992069899469,0.00137738110098764,1.20770741213009,-0.0136106684803963,0.399708062410355,0.0819571614265442,D
1526529546.25016,-0.0453922281285715,0.000848107251890254,1.19986395442617,-0.0149261094629765,0.398873627185822,0.0890880227088928,D
1526529546.26389,-0.042828329101947,-0.000156149551886873,1.19276058672376,-0.0104837119579315,0.390377283096313,0.0955337882041931,D
1526529546.2702,-0.0400296670816888,-0.00182704487106963,1.18640314617465,0.00321471318602562,0.360004633665085,0.0777647495269775,D
1526529546.28022,-0.0373878599704512,-0.00404623920381517,1.18079372934359,0.0159097276628017,0.324872225522995,0.0629068613052368,D
1526529546.29253,-0.0351823574741754,-0.00651035053839362,1.17546873118074,0.0399961322546005,0.306386411190033,0.0456246137619019,D
1526529546.30059,-0.033328756601894,-0.00861738084422086,1.1699465125679,0.062160462141037,0.295307278633118,0.0496852397918701,D
1526529546.31069,-0.0318241936647508,-0.01015995932946,1.16404935373925,0.0855586379766464,0.288592040538788,0.0585240721702576,D
1526529546.32124,-0.0315300554893475,-0.0112469723706597,1.15798985325873,0.100187391042709,0.289885461330414,0.0555463433265686,D
1526529546.33073,-0.0327741751043119,-0.0121790512574034,1.15210335771456,0.104909434914589,0.290174156427383,0.0465843081474304,D
1526529546.3408,-0.0346227598642046,-0.0131561362967066,1.14676430835584,0.107687190175056,0.28445166349411,0.0365914106369019,D
1526529546.35067,-0.0362368627814105,-0.0141534974069075,1.14225434442189,0.119828209280968,0.266517132520676,0.0166231989860535,D
1526529546.36209,-0.0368471670062459,-0.0149574221879325,1.138712070262,0.125869750976562,0.24126872420311,0.00590807199478149,D
1526529546.37086,-0.0361056437514071,-0.0153975293743849,1.13609418522111,0.142126843333244,0.208892017602921,0.0110858678817749,D
1526529546.38091,-0.0345980631985119,-0.0155207609157031,1.13424121289706,0.163218587636948,0.175718262791634,0.0303022861480713,D
1526529546.39116,-0.0330782991838425,-0.0154340564191205,1.13302238669128,0.177004486322403,0.153862819075584,0.0553794503211975,D
1526529546.40056,-0.0319275161538034,-0.0154667118630201,1.13210964442926,0.165127500891685,0.149160981178284,0.0606958866119385,D
1526529546.41054,-0.031143299288703,-0.0160615517837721,1.13143398715684,0.130209565162659,0.132468193769455,0.051754355430603,D
1526529546.42314,-0.0305216253098427,-0.017454602978878,1.13096328045347,0.116037748754025,0.0930199176073074,0.0479354858398438,D
1526529546.43132,-0.0304064121410807,-0.019742867862133,1.13026137088951,0.133484184741974,0.0605196431279182,0.0395498871803284,D
1526529546.44124,-0.030873061667415,-0.0225757345924889,1.12896004520067,0.15398345887661,0.0365387313067913,0.0276501178741455,D
1526529546.45128,-0.0312144440324817,-0.0251898226257046,1.12693556979436,0.145731940865517,0.0424092784523964,0.00627583265304565,D
1526529546.4615,-0.0305965215005909,-0.0269925117906264,1.12413151171078,0.132921308279037,0.0446660369634628,-0.0132527947425842,D
1526529546.47405,-0.0288354671300946,-0.0278848620461811,1.12051424922883,0.156032785773277,0.0328334718942642,-0.0136674642562866,D
1526529546.48166,-0.0264240155998808,-0.0283389901066692,1.11614888298765,0.219434022903442,0.0170902162790298,-0.00133031606674194,D
1526529546.49219,-0.0241326224667962,-0.0289671480978966,1.11169661210609,0.27117520570755,-0.0102100446820259,0.00679677724838257,D
1526529546.50114,-0.0222197011932489,-0.0300817284776821,1.10847738011922,0.281317323446274,-0.0367300249636173,0.0107754468917847,D
1526529546.51128,-0.0204853307894457,-0.0316969113052396,1.10748641262229,0.272060513496399,-0.0522604510188103,0.00822961330413818,D
1526529546.52852,-0.0188577410821259,-0.033818358437632,1.10889326032871,0.263032257556915,-0.0663741677999496,-0.00363337993621826,D
1526529546.53198,-0.0174399021146713,-0.036330495459165,1.11205308528392,0.264864027500153,-0.0927342474460602,-0.0154908299446106,D
1526529546.5429,-0.0159869707964744,-0.0390825222939264,1.11587392336938,0.256559401750565,-0.10421234369278,-0.0346742868423462,D
1526529546.5537,-0.0140962428930652,-0.042077732969126,1.11949591749259,0.25009098649025,-0.103771857917309,-0.0617448687553406,D
1526529546.56201,-0.0117842475511819,-0.0453667809568713,1.12230467042755,0.260993659496307,-0.112016871571541,-0.0731960535049438,D
1526529546.57207,-0.0098612394645606,-0.0485072324258722,1.12461288029797,0.280097901821136,-0.10868413746357,-0.063648521900177,D
1526529546.58213,-0.00889278762881115,-0.0507559032844077,1.12653946769261,0.298813462257385,-0.0902696326375008,-0.0509488582611084,D
1526529546.59328,-0.00894488307143409,-0.0515102548802151,1.12901300829518,0.318213284015656,-0.0657849684357643,-0.0448386073112488,D
1526529546.60275,-0.00954982577126173,-0.0508973691602553,1.13240413542263,0.334122270345688,-0.0477473475039005,-0.0384193658828735,D
1526529546.61243,-0.00993029664230407,-0.0497148848918082,1.13721784756406,0.335998177528381,-0.0420497544109821,-0.0497772097587585,D
1526529546.62819,-0.0091050117316198,-0.0490926241504435,1.14311904534436,0.292770057916641,-0.0415198057889938,-0.0764873027801514,D
1526529546.63238,-0.00678693612767585,-0.0496855404675949,1.15032263629701,0.276508122682571,-0.0651985481381416,-0.0999966859817505,D
1526529546.64288,-0.00303256313595581,-0.051611532633298,1.15846759463999,0.2697674036026,-0.0928636491298676,-0.113061010837555,D
1526529546.65423,0.00187620925080596,-0.0541794849789494,1.16763560065355,0.248767405748367,-0.111892238259315,-0.103382587432861,D
1526529546.66272,0.00773197131658012,-0.0564239568652138,1.17747952528589,0.245088025927544,-0.130872175097466,-0.0804481506347656,D
1526529546.67331,0.0140336129268213,-0.0580951434618443,1.18780600911462,0.233930587768555,-0.12675753235817,-0.0721283555030823,D
1526529546.68301,0.0206068799542195,-0.0594370797557444,1.19827314602071,0.204208195209503,-0.120376214385033,-0.066766619682312,D
1526529546.69436,0.0271859076586443,-0.0605133567885711,1.20924170430282,0.175793826580048,-0.125173687934875,-0.0522480607032776,D
1526529546.70325,0.0340214326414006,-0.0612366729189083,1.22040567537196,0.156188651919365,-0.120951823890209,-0.0353651642799377,D
1526529546.713,0.0408039114087945,-0.0612534299592627,1.23209282250074,0.135339826345444,-0.120281904935837,-0.00340813398361206,D
1526529546.72546,0.0472227340540774,-0.0601840947070943,1.24434750611101,0.113570585846901,-0.106549747288227,0.0275484919548035,D
1526529546.7335,0.053643839040128,-0.0580036255348969,1.25759300170519,0.086852915585041,-0.101977452635765,0.0466105937957764,D
1526529546.74321,0.0600617168295116,-0.0552144657267361,1.27139738516803,0.067446231842041,-0.0949660763144493,0.0555745959281921,D
1526529546.75758,0.0659955561928076,-0.05183960349025,1.28544226796137,0.0473153740167618,-0.0941290110349655,0.0569226741790771,D
1526529546.76342,0.0715068380337008,-0.049140721631899,1.29975715423788,0.00685688853263855,-0.0963011234998703,0.0173280239105225,D
1526529546.77366,0.0773644912439848,-0.0476302197553614,1.31454678747777,-0.0141961500048637,-0.118031524121761,0.00631517171859741,D
1526529546.78333,0.0832558350323468,-0.0464944705828295,1.32918337989385,-0.0123911052942276,-0.149718686938286,0.0156314373016357,D
1526529546.79448,0.0885785926431671,-0.0450755254008775,1.34322586534513,-0.02878737449646,-0.160569295287132,0.0147820711135864,D
1526529546.80339,0.0931096877743313,-0.043592325979741,1.35629378374194,-0.0640477687120438,-0.147078886628151,-0.000989735126495361,D
1526529546.81365,0.09686124386829,-0.0423738063630856,1.36838869238681,-0.109257325530052,-0.135043010115623,-0.0151175260543823,D
1526529546.82787,0.0996290273895016,-0.0411125836480013,1.3794282413422,-0.147445425391197,-0.129388362169266,-0.0170606374740601,D
1526529546.83366,0.101453144878511,-0.0394464783626314,1.38935878748341,-0.186542809009552,-0.123802095651627,-0.0188553333282471,D
1526529546.84369,0.102726037548808,-0.0373297523117023,1.39789426595502,-0.218578144907951,-0.123975746333599,-0.0222610831260681,D
1526529546.85425,0.103931217404923,-0.0351247325767206,1.40504027839367,-0.24297770857811,-0.110160231590271,-0.0366643667221069,D
1526529546.86393,0.10547116872371,-0.0332787569634196,1.410985391548,-0.276024341583252,-0.0763939470052719,-0.0488626956939697,D
1526529546.87609,0.107788882425969,-0.0322514967082515,1.41635179910289,-0.311793744564056,-0.0454142391681671,-0.0605655908584595,D
1526529546.88399,0.111176990276074,-0.0323434664937853,1.42145486997815,-0.326191604137421,-0.0300184935331345,-0.0699260234832764,D
1526529546.89477,0.115826622088867,-0.0338737809250808,1.42641729513078,-0.326454281806946,-0.0153126157820225,-0.082969069480896,D
1526529546.90409,0.122132002783692,-0.0363887844570164,1.43107749497149,-0.333402633666992,-0.00464247539639473,-0.0943333506584167,D
1526529546.9142,0.130001864399034,-0.0391471447975762,1.43538879429915,-0.320775091648102,0.00674603134393692,-0.093457043170929,D
1526529546.92733,0.138324194222209,-0.0416699344347701,1.43909908527348,-0.293006718158722,0.0279679819941521,-0.0882158875465393,D
1526529546.93433,0.145606114438772,-0.0433423947907028,1.44254532617962,-0.286633729934692,0.0426544509828091,-0.0635129809379578,D
1526529546.94467,0.150928664684963,-0.0437050784645201,1.44598005891046,-0.288823574781418,0.0618538782000542,-0.0356886386871338,D
1526529546.95532,0.154477755769299,-0.0430248143644962,1.44946269316475,-0.26663675904274,0.0688658952713013,-0.0279133319854736,D
1526529546.96477,0.156481596141556,-0.0421129692981409,1.45300003439594,-0.225514560937881,0.0284561179578304,-0.0231343507766724,D
0,0,0,0,0,0,0,0,0
1526529547.59864,0.0234865535399676,0.0398101077083308,1.33882001536273,-0.0355507470667362,0.312184244394302,0.0506899356842041,D
1526529547.60958,0.0228498924666742,0.0405582779294056,1.34104739802396,0.00550645589828491,0.259754925966263,0.0306550860404968,D
1526529547.61861,0.0209465032353542,0.0393952208430206,1.34391274464573,0.00275292247533798,0.233064845204353,0.0199552178382874,D
1526529547.62861,0.0197404825418941,0.0370352900589467,1.34694379360665,-0.0378836244344711,0.253457486629486,0.0403030514717102,D
1526529547.64154,0.0191962640960041,0.0342660817271909,1.34968072516348,-0.0571476817131042,0.26720005273819,0.0194772481918335,D
1526529547.64828,0.0192569996659759,0.0316684786994647,1.35208240136298,-0.0540056750178337,0.261185884475708,0.0150603652000427,D
1526529547.65865,0.0191868450380255,0.0293347863184267,1.35419071664732,-0.046963669359684,0.27548536658287,-0.0083809494972229,D
1526529547.6684,0.0191747636258488,0.0274785278224367,1.35627210048343,-0.0567945241928101,0.297219932079315,-0.0179715752601624,D
1526529547.67842,0.0197698888629331,0.0261733370915023,1.35850357858284,-0.0467698872089386,0.306153863668442,-0.0192756652832031,D
1526529547.69339,0.021580260746464,0.0251328067860202,1.36110629760969,-0.0246235299855471,0.300978541374207,-0.0174553394317627,D
1526529547.69925,0.0245194737895258,0.0236242559243863,1.36421028410302,-0.000416547060012817,0.270799189805984,-0.0114743113517761,D
1526529547.7096,0.0280777270932751,0.0212814605379739,1.36784884770066,0.00307550653815269,0.248178049921989,-0.00541174411773682,D
1526529547.72071,0.0319652008340204,0.0184163323645495,1.37162958952408,-0.0109124667942524,0.246076419949532,0.00897848606109619,D
1526529547.73099,0.0357536906893641,0.0153346569427082,1.37529487576105,-0.0143185332417488,0.23402301967144,0.0174928903579712,D
1526529547.74018,0.0392237511093499,0.0124438508170823,1.37899642394064,-0.0163377337157726,0.205223068594933,0.0207294225692749,D
1526529547.74951,0.0423215520817937,0.0099424020006993,1.38274475226484,-0.0220584161579609,0.201928317546844,0.0142377018928528,D
1526529547.76187,0.0450341949355067,0.00778549081280179,1.38652459909032,-0.0283550135791302,0.19565162062645,0.00110733509063721,D
1526529547.77003,0.0473217412237832,0.00604884635907165,1.39049835509474,-0.0253915935754776,0.170691147446632,-0.00299930572509766,D
1526529547.77981,0.0489711312392237,0.00478481102964592,1.39449517739978,-0.027359813451767,0.163750857114792,-0.0126391053199768,D
1526529547.79437,0.051002170668313,0.00395640054266385,1.39823592199462,-0.0406952425837517,0.12903268635273,-0.005016028881073,D
1526529547.79973,0.0535165515226935,0.00314442141174194,1.40105529079078,-0.037423238158226,0.0927287638187408,-0.010698676109314,D
1526529547.81017,0.0569222754592622,0.00191358339525675,1.40259658508708,-0.0554876253008842,0.0690064802765846,-0.0179331302642822,D
1526529547.82071,0.0611411245228005,-7.79460002674391e-05,1.40321708022925,-0.0658637806773186,0.03413225710392,-0.0227425694465637,D
1526529547.82997,0.0655723068413209,-0.00307624314733893,1.40327587188432,-0.0524024590849876,0.013326957821846,-0.0127586722373962,D
1526529547.84026,0.0693982936844235,-0.0071210984326347,1.4030649894071,-0.0218860059976578,-0.00759406201541424,0.00316756963729858,D
1526529547.84999,0.0722475595603811,-0.0118700636560748,1.40296819310609,-0.000356517732143402,-0.0240615550428629,0.0223149061203003,D
1526529547.86083,0.0741816533337697,-0.0170391086347785,1.40331451880934,0.0182890892028809,-0.019388135522604,0.0342907309532166,D
1526529547.87016,0.0754325008675509,-0.0223992008197907,1.40461046674096,0.0277768149971962,-0.0259831417351961,0.0365790128707886,D
1526529547.88005,0.076214180248125,-0.0277251187265081,1.40730795036665,0.0262600556015968,-0.0404016189277172,0.0226843357086182,D
1526529547.89207,0.07718250430608,-0.0328743767666291,1.41140863312481,0.00687436759471893,-0.0782175809144974,-0.00214248895645142,D
1526529547.90033,0.0792119382631342,-0.0379911180867613,1.41614295442418,-0.00647071003913879,-0.134524345397949,-0.0276433825492859,D
1526529547.91027,0.0819621545899897,-0.0438121997216102,1.4205366458113,0.00301649421453476,-0.187780112028122,-0.0584668517112732,D
1526529547.92733,0.0850528344986864,-0.0504806392129792,1.42471439278714,-0.00824299454689026,-0.239759743213654,-0.0623486638069153,D
1526529547.93036,0.0879501227752194,-0.0574479405488956,1.42897156630452,-0.011687844991684,-0.280133634805679,-0.0657501220703125,D
1526529547.94306,0.0904496428734919,-0.0644546354400596,1.43347766250442,-0.00304163247346878,-0.320818722248077,-0.058920681476593,D
1526529547.95054,0.092829858942931,-0.0704289666612681,1.43786877640019,0.00322107970714569,-0.355389684438705,-0.0322104096412659,D
1526529547.96189,0.0950314342195756,-0.0752966254998955,1.44162644398901,0.0151673927903175,-0.382491737604141,-0.0323266386985779,D
1526529547.97071,0.0971722290760823,-0.0799617308390862,1.44450014255953,0.0246590301394463,-0.404904007911682,-0.0412381291389465,D
1526529547.98081,0.0995629618671303,-0.0850771997253325,1.4464607415937,0.00847438722848892,-0.391249001026154,-0.0573641061782837,D
1526529547.9952,0.102144482574273,-0.0912177056898469,1.44764377739701,0.00287286192178726,-0.380046963691711,-0.0962162613868713,D
1526529548.00034,0.104795373800795,-0.0980978046698446,1.44854051236298,0.0268806889653206,-0.407419294118881,-0.118375897407532,D
1526529548.01044,0.107332802025017,-0.104582056000179,1.449217190607,0.0525923818349838,-0.412161290645599,-0.122301399707794,D
1526529548.0217,0.109617901720996,-0.109740138945889,1.4498380631083,0.0722135528922081,-0.405143797397614,-0.127505600452423,D
1526529548.03137,0.11204105443106,-0.113204614397922,1.4509244326434,0.0877156257629395,-0.415773630142212,-0.122707605361938,D
1526529548.04471,0.114708427515255,-0.115138691704994,1.4529899705483,0.0981995984911919,-0.424897283315659,-0.114910304546356,D
1526529548.05124,0.117614452199714,-0.115573864284922,1.456356425784,0.0990612953901291,-0.444525122642517,-0.0943290591239929,D
1526529548.06134,0.120607733589868,-0.114415235468863,1.46100538689703,0.0869988203048706,-0.469054698944092,-0.0616524219512939,D
1526529548.07157,0.123578599139108,-0.111706639051947,1.46618184349069,0.0564743131399155,-0.475472867488861,-0.0273610949516296,D
1526529548.08141,0.126549798752932,-0.107722129420629,1.47105412663209,0.0110549330711365,-0.468384265899658,0.000214993953704834,D
1526529548.09343,0.129051804560602,-0.102918504124512,1.47486810985904,-0.0349190384149551,-0.46339362859726,0.0227528214454651,D
1526529548.10097,0.130195829178771,-0.0977608361624968,1.47687391170565,-0.0563782155513763,-0.444879978895187,0.0393686294555664,D
1526529548.11101,0.129022739410609,-0.0928148867514457,1.47668775182354,-0.0619796812534332,-0.410949498414993,0.0281301140785217,D
1526529548.12365,0.125639526241359,-0.0883698659977707,1.47493701289086,-0.057712122797966,-0.388349503278732,0.00162839889526367,D
1526529548.1321,0.121368078720715,-0.0843031562833976,1.47275301093398,-0.032475084066391,-0.378545373678207,-0.0230578780174255,D
1526529548.14179,0.11721414442901,-0.0804493984715842,1.47121784357414,0.00792877376079559,-0.376077979803085,-0.0339385867118835,D
1526529548.15178,0.11358192344068,-0.0764861260311475,1.47087288885106,0.0459595620632172,-0.367762893438339,-0.0293525457382202,D
1526529548.16198,0.110697316233991,-0.0719959605606739,1.47204290044639,0.0411209613084793,-0.339527159929276,-0.0216501355171204,D
1526529548.17173,0.109243814835164,-0.0664178009428854,1.47446724843203,-0.0191256180405617,-0.315239816904068,-0.0125779509544373,D
1526529548.18194,0.10910792896255,-0.0598611408781978,1.47684509861839,-0.0682302266359329,-0.294780224561691,-0.0130674242973328,D
1526529548.19345,0.108910305855824,-0.0525536718712657,1.4777853191081,-0.0738770887255669,-0.305596500635147,0.0049859881401062,D
1526529548.20265,0.107662181287864,-0.0444434835997697,1.47642578314345,-0.102251775562763,-0.272624045610428,0.0289033651351929,D
1526529548.21221,0.104816976985161,-0.0362175498762128,1.47232975474656,-0.119464382529259,-0.19401603937149,0.0367062091827393,D
1526529548.22402,0.100290802966917,-0.0286431421349127,1.46621148710573,-0.101928010582924,-0.146803289651871,0.0305929780006409,D
1526529548.23178,0.0947259432096154,-0.0222560760968464,1.45939802010955,-0.0667746663093567,-0.122077241539955,0.019379198551178,D
1526529548.24191,0.0888885059495291,-0.0171326564866416,1.45294648530458,-0.0284099578857422,-0.0753746181726456,0.00966924428939819,D
1526529548.25359,0.0836977716912638,-0.0127273474260471,1.44794387746117,-0.00978654623031616,-0.0435650162398815,0.0191389918327332,D
1526529548.2621,0.0799686752235397,-0.00865196655667822,1.44531706088976,-0.0425269603729248,-0.0155335739254951,0.0152605772018433,D
1526529548.27206,0.0789536436933165,-0.00454827658393433,1.44436833026102,-0.126005232334137,0.0257556922733784,0.00337469577789307,D
1526529548.28214,0.0802590797086105,-0.000949685289603205,1.44306171019596,-0.177478209137917,0.0501062236726284,-0.00926196575164795,D
1526529548.29304,0.0816271632872929,0.00213653987887055,1.43967055575024,-0.189278662204742,0.064834900200367,0.00654053688049316,D
1526529548.30415,0.0815205748583564,0.00558509316635255,1.43377160930046,-0.198631808161736,0.0870059579610825,0.056294858455658,D
1526529548.31291,0.0794287711305847,0.0103025387418431,1.42602238394087,-0.201823368668556,0.110750958323479,0.0996537804603577,D
1526529548.32782,0.0753266066115764,0.0160111194002091,1.41724222260288,-0.210881114006042,0.170536190271378,0.110531330108643,D
1526529548.33296,0.0700874965972405,0.0209573385113298,1.40798944110025,-0.2231824696064,0.248677968978882,0.0742148756980896,D
1526529548.34355,0.0652942356919201,0.0231314720127912,1.39900042922717,-0.238478690385818,0.295330941677094,0.00515526533126831,D
1526529548.35839,0.062367135718555,0.0216790874882532,1.39130855127955,-0.239420831203461,0.29992139339447,-0.0492215752601624,D
1526529548.36325,0.062065167224531,0.0173060089098417,1.3855293128598,-0.222645312547684,0.286058187484741,-0.0702511668205261,D
1526529548.37364,0.0640291845816372,0.0119031433079494,1.3815010457566,-0.239365428686142,0.277619421482086,-0.0748432278633118,D
1526529548.38323,0.067018990698511,0.0076848252223698,1.37801877725033,-0.281398624181747,0.274805098772049,-0.0645149946212769,D
1526529548.39404,0.0695080172468461,0.00604042639372532,1.3733170324389,-0.312340199947357,0.281736195087433,-0.0434485077857971,D
1526529548.40329,0.0701730405412617,0.00766395546488304,1.3662437680424,-0.31278920173645,0.263431698083878,-0.00314652919769287,D
1526529548.41344,0.0684120122891513,0.0122359314229648,1.35658437500445,-0.303048968315125,0.261228531599045,0.0351227521896362,D
1526529548.42425,0.0642548908675345,0.0182157749605119,1.34500832327657,-0.304480195045471,0.277354776859283,0.0438218116760254,D
1526529548.43358,0.0584915070892027,0.0242635987203977,1.33248541125501,-0.296813756227493,0.302093237638474,0.0423991084098816,D
1526529548.44375,0.0524615904148482,0.0294759294231424,1.31976119082422,-0.268174022436142,0.321875840425491,0.0433106422424316,D
1526529548.45407,0.0469633716163715,0.0332362483061627,1.3074976254426,-0.23356568813324,0.331203758716583,0.0250180959701538,D
1526529548.46401,0.0428835971236036,0.0354114016490771,1.29596923837741,-0.206433057785034,0.328265935182571,0.0140334963798523,D
1526529548.47406,0.0408798195264113,0.0363320452300529,1.28565979450295,-0.188622832298279,0.317863970994949,0.0227513909339905,D
1526529548.4839,0.0407089606108471,0.0363756794134606,1.27620899085378,-0.175589010119438,0.314764261245728,0.0357877612113953,D
1526529548.49471,0.0414678060860256,0.0357480124032022,1.26739881679978,-0.176927477121353,0.306477099657059,0.0422794818878174,D
1526529548.50401,0.0422890521242173,0.0347454176826599,1.25844451602082,-0.17329341173172,0.287683367729187,0.0500165820121765,D
1526529548.51451,0.0425145791994497,0.0334984221129332,1.2490701096013,-0.154462188482285,0.276656210422516,0.0556647777557373,D
1526529548.52805,0.0422122398776476,0.0324054012208542,1.23895080673035,-0.130800604820251,0.274007380008698,0.0674017667770386,D
1526529548.53464,0.0415976250420799,0.0316151186818048,1.22857211566262,-0.102050691843033,0.278115600347519,0.0744260549545288,D
1526529548.54433,0.0409658944532556,0.0310755784577565,1.21791644088102,-0.0707045644521713,0.286868929862976,0.0785889029502869,D
1526529548.55488,0.0402651911501981,0.0303100489747001,1.20795694458228,-0.0453780330717564,0.293962031602859,0.0798767805099487,D
1526529548.56514,0.0397069269314198,0.0291355730500299,1.19878863783276,-0.0203925371170044,0.302187472581863,0.0815208554267883,D
1526529548.57437,0.0394309441773567,0.0273781140827806,1.19030644943546,0.00255571305751801,0.314697682857513,0.0754321217536926,D
1526529548.58436,0.0394580023970764,0.0250882191607451,1.18275735846916,0.0236139670014381,0.304870754480362,0.0691434144973755,D
1526529548.59462,0.0396696057022825,0.0224563150662407,1.17636557622298,0.0404899567365646,0.284341037273407,0.069456934928894,D
1526529548.60465,0.0398815941685986,0.0199541701610769,1.17089479298206,0.062248732894659,0.273523390293121,0.0744606256484985,D
1526529548.61468,0.0396666077833792,0.0177459804180909,1.16589202363385,0.0832595825195312,0.265822440385818,0.0782644152641296,D
1526529548.62624,0.0387021339253718,0.0157694878609624,1.16115108756037,0.100182577967644,0.261114895343781,0.0798459053039551,D
1526529548.63433,0.0368413096200999,0.0139661124999704,1.15675698223268,0.112248986959457,0.26178365945816,0.0812094211578369,D
1526529548.64491,0.0341320779466355,0.0123175453412464,1.15297785152619,0.123927675187588,0.261355936527252,0.0788094997406006,D
1526529548.65491,0.0308656669251532,0.0107826516585269,1.15015952018396,0.138879790902138,0.24225826561451,0.0743404626846313,D
1526529548.66456,0.0273225042822135,0.00931512198049903,1.14837646834535,0.147044271230698,0.213798016309738,0.0639755129814148,D
1526529548.67477,0.0239621410370206,0.00775683159173165,1.14728576566761,0.148266822099686,0.180989786982536,0.0523256659507751,D
1526529548.6846,0.0211231735981343,0.00589417303053504,1.14666594491317,0.159405499696732,0.142170384526253,0.0424078702926636,D
1526529548.69552,0.0190006648363111,0.00356379786054442,1.14633888526387,0.176450431346893,0.105812937021255,0.0409966111183167,D
1526529548.7053,0.0176178910599152,0.000721894549443061,1.14608581939666,0.17270590364933,0.096104584634304,0.0412416458129883,D
1526529548.71545,0.0162705448175213,-0.00271756982926881,1.14562257887759,0.17646399140358,0.104109212756157,0.0314801335334778,D
1526529548.72902,0.0144265709679598,-0.00667497888123887,1.14487954731137,0.184426784515381,0.10532458126545,0.0193743705749512,D
1526529548.736,0.0120333127913409,-0.0107801144515986,1.14419604946735,0.193976581096649,0.0917439013719559,0.0143806338310242,D
1526529548.74548,0.00940718683274156,-0.0146059720611465,1.14384368161243,0.218697592616081,0.0778933241963387,0.0142838954925537,D
1526529548.75732,0.00689470911294805,-0.0181184264100621,1.14394827548364,0.239337563514709,0.0551705285906792,0.00536632537841797,D
1526529548.76583,0.00464095603472968,-0.021675524302793,1.14444748680603,0.263334989547729,0.0380185544490814,-0.0108505487442017,D
1526529548.77579,0.00274354843582264,-0.0254953027855806,1.14532119511537,0.284778714179993,0.0242816302925348,-0.0182731151580811,D
1526529548.78714,0.00118401947773484,-0.0297440095067237,1.14658501722808,0.292258262634277,0.0247647725045681,-0.028351366519928,D
1526529548.79603,9.03058146917831e-05,-0.0343069897691279,1.14823204479757,0.28817880153656,0.0317397788167,-0.0392389297485352,D
1526529548.807,-0.000721879430631946,-0.0388548158804899,1.15030944507619,0.297245383262634,0.0266609415411949,-0.0467907786369324,D
1526529548.81605,-0.00136362429341104,-0.0430506097224186,1.15277699619865,0.317692309617996,0.0109482817351818,-0.0425381660461426,D
1526529548.82934,-0.00190236818655729,-0.046765118461568,1.15557204646267,0.342720597982407,0.00102719664573669,-0.0350459218025208,D
1526529548.83577,-0.00231539805031929,-0.0501877635636976,1.15886912033009,0.355400860309601,-0.00222358107566833,-0.03022301197052,D
1526529548.8456,-0.00277872255016981,-0.0536928221118917,1.16295699124951,0.354856014251709,-0.000337556004524231,-0.0376998782157898,D
1526529548.85656,-0.00325672096044065,-0.0574272876821065,1.16803761071955,0.34455993771553,0.00601979717612267,-0.044927716255188,D
1526529548.86575,-0.00378349353794364,-0.0610855159870358,1.17420663816075,0.339927554130554,0.00383283942937851,-0.0503189563751221,D
1526529548.87591,-0.00425166061710365,-0.0644184987195768,1.181074830197,0.319840371608734,-0.00864885747432709,-0.0619434118270874,D
1526529548.88644,-0.00393024055974517,-0.0671139107984878,1.18849553913014,0.318450808525085,-0.0402996242046356,-0.0564124584197998,D
1526529548.8965,-0.00247683204944991,-0.0692792875093169,1.19611634641921,0.337904840707779,-0.0802865028381348,-0.0436463952064514,D
1526529548.90694,0.000203191387059239,-0.0715105523739081,1.20432628780862,0.343348979949951,-0.103340491652489,-0.034233033657074,D
1526529548.91658,0.00393045081600628,-0.0742286416610527,1.21316029316287,0.337465286254883,-0.11943332105875,-0.0185542106628418,D
1526529548.92778,0.00821426499279263,-0.0773280254777145,1.22294760026578,0.335423052310944,-0.129954844713211,0.0028374195098877,D
1526529548.93693,0.0125031203010405,-0.0804551454457863,1.23331415854498,0.308597832918167,-0.122680999338627,0.0129226446151733,D
1526529548.94675,0.0163743664696557,-0.0832177550260945,1.24438039644886,0.27671280503273,-0.123572781682014,0.0138160586357117,D
1526529548.96157,0.0198069940019502,-0.0851281885765933,1.25580668483148,0.254451215267181,-0.133929818868637,0.0179271101951599,D
1526529548.96696,0.0231164731353286,-0.0860719593722904,1.26738047592846,0.228344440460205,-0.123502343893051,0.0146171450614929,D
1526529548.97689,0.0268116538680231,-0.0863467355539497,1.27869608044134,0.202432662248611,-0.120281837880611,0.0126857757568359,D
1526529548.98741,0.0308095630508635,-0.0862301317423227,1.28983110688145,0.186716988682747,-0.117876850068569,0.0175859928131104,D
1526529548.99663,0.0350651667474134,-0.0859519181709059,1.30065234053488,0.172499418258667,-0.0935212969779968,0.0237568616867065,D
1526529549.00795,0.0394367613864804,-0.0857227729743559,1.31161003146077,0.144037321209908,-0.0689857453107834,0.0261930227279663,D
1526529549.0165,0.0438975533410069,-0.0858297343040587,1.32298184657677,0.116815805435181,-0.0588231459259987,0.016034722328186,D
1526529549.02765,0.0486678885726652,-0.0867023488036005,1.3350217838908,0.0804860889911652,-0.0483857542276382,-0.00872009992599487,D
1526529549.03723,0.0538826150634482,-0.0885038170391493,1.3477140903742,0.0437510907649994,-0.0522249937057495,-0.0316809415817261,D
1526529549.04727,0.0597590991774885,-0.0908117883001936,1.36130864151379,0.000962622463703156,-0.0719644874334335,-0.0508658885955811,D
1526529549.05767,0.0662908287329404,-0.0932321386282241,1.37559976309793,-0.0491699278354645,-0.0879854336380959,-0.0664206147193909,D
1526529549.06814,0.0732469678621576,-0.0952018647537862,1.39020532056376,-0.100483767688274,-0.0839039459824562,-0.061930775642395,D
1526529549.07757,0.0799094642873061,-0.0965839321845905,1.40443358045229,-0.155975252389908,-0.0794202908873558,-0.0849699974060059,D
1526529549.09867,0.0860718452129268,-0.0981169858337368,1.4181710211617,-0.208873689174652,-0.0837994739413261,-0.1023810505867,D
1526529549.10008,0.0918311400020038,-0.0992274464412432,1.43080415642206,-0.240863472223282,-0.0756424516439438,-0.0822166800498962,D
1526529549.10819,0.09689222298833,-0.0991270400010142,1.44222697001988,-0.268064498901367,-0.089946836233139,-0.0774017572402954,D
1526529549.11724,0.101114483750922,-0.0980954830687243,1.4524885715781,-0.304848462343216,-0.0997387692332268,-0.0838500261306763,D
1526529549.12848,0.104475167531865,-0.0969013056311752,1.4616923813216,-0.326711624860764,-0.0937590003013611,-0.0800645351409912,D
1526529549.1398,0.107259246999295,-0.0956414582042751,1.46980536368494,-0.344723641872406,-0.0938782840967178,-0.0576234459877014,D
1526529549.14799,0.10950321395135,-0.0942537656426006,1.47680196083943,-0.366444081068039,-0.0815715491771698,-0.0513408184051514,D
1526529549.16199,0.111420314979531,-0.0928218831111207,1.48276221402977,-0.389046847820282,-0.070899099111557,-0.0517234802246094,D
1526529549.16817,0.113294043904357,-0.0913533994073666,1.48783829355613,-0.395920872688293,-0.0720918700098991,-0.0470072627067566,D
1526529549.17855,0.11546472029321,-0.0898244389736867,1.49196801575925,-0.384656578302383,-0.067822590470314,-0.0495732426643372,D
1526529549.19313,0.118203995852743,-0.088318461245682,1.49505136607043,-0.372733592987061,-0.0594713911414146,-0.0628502368927002,D
1526529549.19789,0.12132653880166,-0.0867120320516969,1.49723292469389,-0.350417524576187,-0.0553076267242432,-0.0801418423652649,D
1526529549.208,0.124828432954927,-0.0844866951765542,1.49877182703599,-0.327383756637573,-0.0501760095357895,-0.0845622420310974,D
1526529549.21881,0.128256344039549,-0.0810959591202902,1.49919495788875,-0.296353667974472,-0.0487042441964149,-0.0733169317245483,D
1526529549.22888,0.131359939420365,-0.0769533853627513,1.49874444519254,-0.277369141578674,-0.0101660341024399,-0.0697463154792786,D
1526529549.23863,0.133090426667907,-0.0726212434437928,1.4977770832738,-0.255761206150055,0.00816155970096588,-0.018551230430603,D
0,0,0,0,0,0,0,0,0
1526529549.94434,0.0228618769466977,0.00865164699949435,1.35421596860653,-0.0609144493937492,0.227737233042717,0.0645663738250732,D
1526529549.94866,0.0201210840698565,0.0077022164081136,1.35153068599297,-0.0360798239707947,0.220562249422073,0.00240767002105713,D
1526529549.94899,0.0180220152187225,0.00579957898821088,1.34923998246531,-0.0491791851818562,0.238496080040932,0.0203285813331604,D
1526529549.95213,0.0173358757822372,0.00363402166825198,1.34753107948767,-0.0483712702989578,0.259768038988113,0.0343890190124512,D
1526529549.96207,0.0172038938745213,0.00160430291085474,1.34650128878941,-0.0199953801929951,0.25488492846489,0.0390505790710449,D
1526529549.97281,0.0174316266367847,-0.000232583344830117,1.34634252213138,-0.0121359433978796,0.242519497871399,0.04637211561203,D
1526529549.98222,0.0178479149522555,-0.00181777181897839,1.34689599099228,-0.0202273093163967,0.242902681231499,0.0494606494903564,D
1526529549.99216,0.0179254151685999,-0.00291270041771547,1.34768077701672,-0.0212507955729961,0.252733051776886,0.057528555393219,D
1526529550.00311,0.0174207228959216,-0.00355729193323062,1.34829174235077,-0.0293063279241323,0.266935259103775,0.0516455173492432,D
1526529550.01245,0.0164591796459442,-0.0040244777225943,1.34884283445583,-0.0368898212909698,0.283481627702713,0.0411314964294434,D
1526529550.02312,0.0150412931262674,-0.00470116955727197,1.34943032375654,-0.0371352881193161,0.296873569488525,0.0271432995796204,D
1526529550.03257,0.0135043488670213,-0.00568276942275523,1.35008710447717,-0.031814269721508,0.304558962583542,0.0186609625816345,D
1526529550.04266,0.0125283051495247,-0.00693475422918428,1.35057144173892,-0.0204469878226519,0.30796092748642,0.0118908882141113,D
1526529550.05269,0.012678222966445,-0.00855498576180041,1.3509915607673,0.00480915326625109,0.289022028446198,0.0135244131088257,D
1526529550.0628,0.0137143624948621,-0.0108117426666006,1.35147900151498,0.0344283506274223,0.284186631441116,0.0101166963577271,D
1526529550.07356,0.0154448806909914,-0.0138691054246917,1.35230251309055,0.038878507912159,0.299699455499649,0.00425541400909424,D
1526529550.08296,0.0177103646390309,-0.0176732240893558,1.3536573437526,0.051293570548296,0.30175518989563,-0.00217455625534058,D
1526529550.09312,0.0204261095681783,-0.0222724786272107,1.35564083781311,0.0721096694469452,0.292594462633133,-0.012831449508667,D
1526529550.10348,0.0234416206411853,-0.0273932142829294,1.35827859224628,0.0847846493124962,0.266128271818161,-0.0205167531967163,D
1526529550.11335,0.0268818039205437,-0.0323481580245167,1.36170997218689,0.0777497515082359,0.219915777444839,-0.0248252749443054,D
1526529550.12386,0.0308630692401214,-0.0365591078738051,1.36571523158788,0.068878635764122,0.150689631700516,-0.0339962840080261,D
1526529550.13334,0.0355680628921049,-0.0398965142256111,1.36980147854286,0.0450646579265594,0.111939020454884,-0.0434351563453674,D
1526529550.14376,0.0408814379138132,-0.0424912111702972,1.3733362169975,0.0189812928438187,0.0853902250528336,-0.0414255261421204,D
1526529550.15363,0.0462034850112643,-0.0445733430087248,1.37618816653104,0.00563189759850502,0.0691041350364685,-0.0233300924301147,D
1526529550.16373,0.0511121861306193,-0.0463133732833264,1.3785782586247,-0.010843500494957,0.071638360619545,0.0119969844818115,D
1526529550.17494,0.0552510356967377,-0.0476506347258833,1.38103981254427,-0.0209958180785179,0.0609947144985199,0.0560564994812012,D
1526529550.18372,0.0582822003621285,-0.0487529242141564,1.38367667431126,-0.0234357379376888,0.0656004920601845,0.0852506756782532,D
1526529550.19461,0.0602997074036582,-0.0499308392624682,1.38652545981475,-0.0267865769565105,0.0505995489656925,0.0945184826850891,D
1526529550.21211,0.0618996603167962,-0.0516154410828471,1.38955169844476,-0.0125223807990551,0.00900012254714966,0.0864162445068359,D
1526529550.21458,0.0639231502894233,-0.0543933259026347,1.39215373108988,0.0134700983762741,-0.0163873806595802,0.0683047771453857,D
1526529550.2263,0.0670270238918342,-0.0586783240105759,1.39390346126195,0.00689940899610519,-0.0271810330450535,0.0341842770576477,D
1526529550.23465,0.0713536978027773,-0.0646136703466784,1.39451133406489,-0.014946274459362,-0.0290767699480057,-0.000521421432495117,D
1526529550.24641,0.0763000654486724,-0.0717143428686603,1.39389947072538,-0.0268052741885185,-0.0350470542907715,-0.0186864733695984,D
1526529550.25483,0.080916499017629,-0.0793888340857567,1.39238339272018,-0.0173564851284027,-0.0470941662788391,-0.0215175151824951,D
1526529550.26535,0.0843077682053007,-0.0862158680233399,1.390683822207,-0.000551655888557434,-0.0559882447123528,0.00232964754104614,D
1526529550.27519,0.0860030390271108,-0.0916542339022267,1.38944665797874,0.0113720446825027,-0.0524939820170403,-0.00874751806259155,D
1526529550.28511,0.0867478218625431,-0.0959338145132682,1.3893535280381,0.00793655961751938,-0.0655590668320656,-0.0162603855133057,D
1526529550.29592,0.0872455542571883,-0.0988991947041473,1.39005878511312,0.0157536417245865,-0.0861953273415565,-0.00621479749679565,D
1526529550.30678,0.0879204201590383,-0.100994566727839,1.39125246810375,0.0303465351462364,-0.114403285086155,0.00303971767425537,D
1526529550.31527,0.0886620582191092,-0.103067862395785,1.39297878119361,0.0317512229084969,-0.126857042312622,0.0207238793373108,D
1526529550.3252,0.0892217306127819,-0.10554359648276,1.39571383968005,0.0300905331969261,-0.131516575813293,0.0449995994567871,D
1526529550.33704,0.0896003485203656,-0.108467198941956,1.39966834178668,0.0238535776734352,-0.131432741880417,0.0676500201225281,D
1526529550.34532,0.0903318795090317,-0.112618209392584,1.40469371497532,0.0066300705075264,-0.127501755952835,0.0479483008384705,D
1526529550.35575,0.0921300278817582,-0.118975995309457,1.41075130370365,-0.00425221025943756,-0.160748720169067,0.0125386714935303,D
1526529550.36555,0.0951628747418759,-0.127478620513333,1.41800001656865,0.00172950327396393,-0.217068925499916,-0.00511020421981812,D
1526529550.37622,0.0984748386498246,-0.137280326770253,1.42592587954809,0.0033935084939003,-0.224953785538673,-0.0210584998130798,D
1526529550.38699,0.100977079376995,-0.147261228735192,1.43408130043104,-0.0150892734527588,-0.209626287221909,-0.0373159646987915,D
1526529550.39567,0.102336314162944,-0.156509652123818,1.44205204667601,-0.0306576862931252,-0.224429219961166,-0.0673325061798096,D
1526529550.40753,0.102742868242544,-0.164336799556027,1.44924377159678,-0.0243981555104256,-0.27271369099617,-0.0859970450401306,D
1526529550.41603,0.102406490849402,-0.17062101743942,1.45498022689941,0.00339803844690323,-0.304086983203888,-0.100585460662842,D
1526529550.4258,0.101749657765312,-0.175564729634873,1.45936461130765,0.0224389955401421,-0.317806899547577,-0.115297853946686,D
1526529550.4432,0.101484963291064,-0.17971010066302,1.46317301194563,0.0181338042020798,-0.304095298051834,-0.126452386379242,D
1526529550.44662,0.102033222571705,-0.183553063246119,1.46737109111308,0.0127240344882011,-0.300703406333923,-0.129471302032471,D
1526529550.45674,0.103364144568784,-0.187220595253254,1.472468224097,0.0179771035909653,-0.323824107646942,-0.124281227588654,D
1526529550.46626,0.105080659587687,-0.190690353102428,1.47843837377754,0.0231277346611023,-0.357749670743942,-0.125470995903015,D
1526529550.47777,0.106894626620691,-0.193564062390637,1.48510659700708,0.025351956486702,-0.414388239383698,-0.129165232181549,D
1526529550.48656,0.1087453121552,-0.19495726545976,1.49244301141016,0.0146033987402916,-0.484129875898361,-0.116703808307648,D
1526529550.49619,0.110675201262175,-0.194348709961233,1.49993111652433,-0.00129911303520203,-0.537686228752136,-0.0846896171569824,D
1526529550.50906,0.11238405134986,-0.191637539309922,1.50702146134598,-0.0300470143556595,-0.564307034015656,-0.0456632375717163,D
1526529550.51641,0.113560443535028,-0.187509044652427,1.51334928138276,-0.0757467746734619,-0.574931502342224,-0.0123666524887085,D
1526529550.52688,0.113947863704442,-0.182999966029473,1.51842308734078,-0.114991955459118,-0.584842801094055,0.00399452447891235,D
1526529550.53666,0.113363019186435,-0.178834522358888,1.5217257729037,-0.1416355073452,-0.573482155799866,-0.00290125608444214,D
1526529550.54609,0.111524713696781,-0.175473783272386,1.52283162117874,-0.15081387758255,-0.530546963214874,-0.0504037737846375,D
1526529550.55812,0.108440412925174,-0.172709959057578,1.52200056287994,-0.14168256521225,-0.506020069122314,-0.121585488319397,D
1526529550.56636,0.104523609841294,-0.169250419246702,1.51984373294164,-0.118208199739456,-0.483400166034698,-0.177657842636108,D
1526529550.57679,0.100092150990359,-0.163334017945498,1.51693113107247,-0.0941396057605743,-0.462230324745178,-0.198591411113739,D
1526529550.58615,0.0950761447266907,-0.153660566909386,1.51380590657223,-0.073703333735466,-0.447825849056244,-0.180186152458191,D
1526529550.5963,0.0895150200292212,-0.139940154844361,1.51085561710197,-0.0569054111838341,-0.424045026302338,-0.130515813827515,D
1526529550.60725,0.083548739661006,-0.122954635838589,1.50820663995754,-0.0533415824174881,-0.382364928722382,-0.0716038942337036,D
1526529550.61629,0.0773485638369332,-0.10455202025493,1.50534279644306,-0.0731721445918083,-0.300208210945129,-0.0256460905075073,D
1526529550.62628,0.0709146934959504,-0.0867368849304233,1.50217449119987,-0.115083537995815,-0.21495458483696,0.00879716873168945,D
1526529550.63637,0.0645501275324166,-0.07171111868803,1.49846160027421,-0.153572916984558,-0.133829236030579,0.00345498323440552,D
1526529550.64659,0.0590077942439201,-0.0617060347671518,1.49360527845584,-0.174477159976959,-0.0624298229813576,-0.0570918917655945,D
1526529550.65888,0.0548265608466153,-0.0571145815883203,1.48744570569953,-0.183493912220001,-0.0295719392597675,-0.127688229084015,D
1526529550.66672,0.0521764305918873,-0.0558014449568213,1.48036398750668,-0.151207938790321,-0.0436417497694492,-0.157837748527527,D
1526529550.67693,0.0509698244727161,-0.0544725511750788,1.47286027781955,-0.103377684950829,-0.0493186637759209,-0.134631216526031,D
1526529550.68675,0.0509862843889196,-0.0507764274659407,1.4656497518587,-0.092768631875515,-0.0384407714009285,-0.0943987965583801,D
1526529550.69662,0.0519754703223835,-0.0443255351381787,1.45927485075413,-0.10057657957077,-0.0275721326470375,-0.0419126152992249,D
1526529550.7083,0.0531561297750867,-0.0358441417192498,1.4539933403543,-0.103069506585598,-0.00891996547579765,0.0343230962753296,D
1526529550.71691,0.0538720292298225,-0.0264581629721178,1.44942366159846,-0.141870349645615,0.0504797399044037,0.0962222218513489,D
1526529550.72699,0.0543309762955592,-0.0176956226245956,1.44463386168598,-0.235814303159714,0.145101323723793,0.106018841266632,D
1526529550.73723,0.0546312476815189,-0.0116320913041108,1.43842627838034,-0.306400924921036,0.230708256363869,0.0592162609100342,D
1526529550.74716,0.0539921118235379,-0.00903019729018397,1.43073816661412,-0.343804389238358,0.259997636079788,0.00571948289871216,D
1526529550.75831,0.0520877731533209,-0.00886329767937952,1.42177757681852,-0.355269581079483,0.278307229280472,-0.0399696826934814,D
1526529550.76751,0.049252604400585,-0.00913321262492023,1.41185122283422,-0.341726362705231,0.291312456130981,-0.0677063465118408,D
1526529550.77756,0.0465288990985498,-0.00829881545278099,1.40164489586313,-0.326265156269073,0.295717388391495,-0.0824307799339294,D
1526529550.78783,0.0448635943281771,-0.00601299982907587,1.39166931808278,-0.316866159439087,0.293959558010101,-0.0941028594970703,D
1526529550.79823,0.0447559068335948,-0.00228723080868989,1.38185637803453,-0.330904185771942,0.297135978937149,-0.0715301036834717,D
1526529550.81263,0.0456974864877977,0.00268117908643407,1.37188619253559,-0.336147725582123,0.308253675699234,-0.0207008719444275,D
1526529550.81825,0.0469697311722322,0.00842483144739122,1.36142552806966,-0.353591412305832,0.319307297468185,0.0264648199081421,D
1526529550.82838,0.0477999724875732,0.0139661322922403,1.35006262131127,-0.375429093837738,0.346881926059723,0.0448266863822937,D
1526529550.84033,0.0476661103181668,0.018411945453242,1.33747451999163,-0.386522442102432,0.375878572463989,0.0434489250183105,D
1526529550.8486,0.0465494386058189,0.0217954801942258,1.32379858997039,-0.366650968790054,0.383411794900894,0.0453561544418335,D
1526529550.8585,0.0450679677418396,0.0248445693794199,1.30934127600941,-0.323954224586487,0.378082990646362,0.0559883117675781,D
1526529550.86855,0.0437623596650139,0.0279675546272753,1.29454101264492,-0.275237619876862,0.362726479768753,0.0625861883163452,D
1526529550.87869,0.0429144120092887,0.0314253219040079,1.28036593502248,-0.240023612976074,0.341448217630386,0.0801900625228882,D
1526529550.88855,0.0426045297174841,0.0353733378104653,1.26735725472037,-0.214150071144104,0.323512941598892,0.116463780403137,D
1526529550.89891,0.0424807441701219,0.0396193239131138,1.25557017205058,-0.179092347621918,0.302655220031738,0.157234072685242,D
1526529550.91023,0.0419336259371937,0.04368788858872,1.24447864285936,-0.150478139519691,0.296847820281982,0.187834322452545,D
1526529550.91949,0.0404980646155019,0.0472572854051604,1.23407304124017,-0.122793480753899,0.310972601175308,0.207430422306061,D
1526529550.92887,0.0380990589074765,0.0501257487625813,1.22426689253021,-0.0897387787699699,0.330744415521622,0.209673881530762,D
1526529550.94068,0.0347696316695397,0.0522773647555242,1.21540076266508,-0.0449995584785938,0.335380375385284,0.20190292596817,D
1526529550.94912,0.0308849613854097,0.0537005586972864,1.20751726875905,-0.00101986154913902,0.336725294589996,0.193440556526184,D
1526529550.95993,0.0272823103308283,0.0543703152410249,1.2006621253499,0.0250532515347004,0.341010391712189,0.177166819572449,D
1526529550.97238,0.0244358088535161,0.0539268106247582,1.19502969828969,0.0435647889971733,0.342810600996017,0.150088429450989,D
1526529550.97919,0.0221487672776677,0.0522366553610276,1.19057961515348,0.0610436499118805,0.334729373455048,0.131523966789246,D
1526529550.99033,0.0201407143629752,0.0495833209096218,1.1872042993157,0.0804103016853333,0.325365602970123,0.121874690055847,D
1526529550.99936,0.0182827559422587,0.046464556938703,1.18467278501854,0.096178911626339,0.312057584524155,0.114812135696411,D
1526529551.012,0.0165678693873341,0.0432573800463742,1.18261705579971,0.109714865684509,0.295212268829346,0.116252243518829,D
1526529551.02109,0.0148532930909875,0.040015742233352,1.18050183250316,0.133383020758629,0.280269950628281,0.117711067199707,D
1526529551.02956,0.0129240574171114,0.036621375148046,1.17785505117247,0.153558358550072,0.26905032992363,0.118981778621674,D
1526529551.04296,0.0104798145738538,0.0328858751960909,1.17421995189484,0.1768429428339,0.27361786365509,0.126693248748779,D
1526529551.04963,0.00687097727302001,0.0288141539752367,1.16951463824753,0.208006203174591,0.276246696710587,0.129108428955078,D
1526529551.05991,0.00167457678209763,0.0247108579397416,1.16411030760812,0.24168835580349,0.270054399967194,0.127455115318298,D
1526529551.07526,-0.00511071665700134,0.0209742636060616,1.15879879876322,0.272931843996048,0.267875194549561,0.127116858959198,D
1526529551.07973,-0.0129188132143223,0.0176617952726003,1.15423900505305,0.293098330497742,0.266546994447708,0.112751960754395,D
1526529551.08987,-0.0209270986696433,0.0144637051384368,1.15091787020254,0.307208776473999,0.257978200912476,0.0863158702850342,D
1526529551.09953,-0.0282009994357856,0.0109209218650354,1.14879070656438,0.310269564390182,0.252253711223602,0.0464940667152405,D
1526529551.10965,-0.0340110212796912,0.00651494461956776,1.14756425465275,0.322852611541748,0.219832763075829,0.0120805501937866,D
1526529551.11956,-0.0381712988564433,0.00123313650200554,1.14704490745158,0.336257696151733,0.172421485185623,0.00119340419769287,D
1526529551.13037,-0.040787687223312,-0.00412361296215354,1.14735666728337,0.339955121278763,0.131008237600327,0.00437831878662109,D
1526529551.14703,-0.0425841949578385,-0.00866584434400451,1.14815823264038,0.357770532369614,0.109391517937183,0.00979810953140259,D
1526529551.15037,-0.0445353695138254,-0.0120679927450434,1.14988591532567,0.368339419364929,0.106233693659306,0.00548171997070312,D
1526529551.16048,-0.0474199460987631,-0.0143188095835336,1.15270097163791,0.367618262767792,0.0952397882938385,-0.000753462314605713,D
1526529551.17097,-0.0515854772232199,-0.0156128567046339,1.15696269306592,0.356426924467087,0.0928167328238487,-0.00714349746704102,D
1526529551.18082,-0.0565040382266642,-0.0161842265721092,1.16206312990655,0.340631008148193,0.0737975537776947,-0.0186639428138733,D
1526529551.19089,-0.0610113110763818,-0.0163308207335693,1.16784915319542,0.324301511049271,0.0374418795108795,-0.0407357811927795,D
1526529551.20076,-0.0640005474096565,-0.016353813129719,1.17343338033632,0.312803894281387,0.00134711153805256,-0.0517107844352722,D
1526529551.21117,-0.0650264803439234,-0.0167683682387717,1.17861928763561,0.319488137960434,-0.0263958778232336,-0.0423691272735596,D
1526529551.22125,-0.0641448074964627,-0.0183172677176578,1.18308944513095,0.312732040882111,-0.0229854322969913,-0.0287132263183594,D
1526529551.23092,-0.0613727831147264,-0.0217398279868562,1.18757087587495,0.30147784948349,-0.0154057182371616,-0.0114264488220215,D
1526529551.24471,-0.0573177968152741,-0.0274944024442058,1.19209856569195,0.297850102186203,-0.00882944092154503,-0.00324022769927979,D
1526529551.2509,-0.0528051890143409,-0.035468143947053,1.19665569589559,0.290784567594528,-0.0058434009552002,-0.0169602632522583,D
1526529551.261,-0.0485196018992469,-0.0448829933878672,1.2010603613643,0.291600525379181,-0.0314859673380852,-0.0307624340057373,D
1526529551.27227,-0.0447316368093435,-0.0541882837205289,1.20583240984728,0.28998190164566,-0.0573203377425671,-0.0352730751037598,D
1526529551.28184,-0.0414710742336882,-0.0620110675195292,1.21094686791729,0.281201899051666,-0.0741478502750397,-0.0509216785430908,D
1526529551.29297,-0.0379564045607078,-0.0681307434149033,1.2166638992434,0.261141121387482,-0.0846643522381783,-0.0830556750297546,D
1526529551.3013,-0.0337843955660678,-0.0734186232125611,1.22254502117068,0.246119827032089,-0.101459369063377,-0.127286493778229,D
1526529551.31282,-0.0284091110891851,-0.0790078310682167,1.22868457922208,0.236644923686981,-0.127616450190544,-0.152203381061554,D
1526529551.32161,-0.0218536729216205,-0.0854505915289573,1.23479471806033,0.208524525165558,-0.146641194820404,-0.165904402732849,D
1526529551.33226,-0.0142264782634862,-0.0924947006873523,1.24098497487836,0.183644562959671,-0.166764736175537,-0.16476047039032,D
1526529551.34194,-0.00614634943934495,-0.0993659215305287,1.24705222020904,0.169415548443794,-0.195332854986191,-0.152473509311676,D
1526529551.35319,0.00179035436674677,-0.105177689607998,1.2534088942645,0.157353445887566,-0.219775751233101,-0.133625209331512,D
1526529551.36186,0.00909737908470565,-0.109297581264742,1.26021221019118,0.144017949700356,-0.232126981019974,-0.118450164794922,D
1526529551.37523,0.0158333527180814,-0.1117558013711,1.26779366387345,0.117688924074173,-0.233898818492889,-0.119155704975128,D
1526529551.38182,0.0222605180709433,-0.113306001280237,1.27590782737644,0.0844666883349419,-0.239528566598892,-0.132802844047546,D
1526529551.39464,0.0284140086212472,-0.114423348145423,1.28422881353711,0.0634961724281311,-0.233879029750824,-0.141003966331482,D
1526529551.40185,0.0343145385900096,-0.115051185610285,1.29230366280339,0.0628428310155869,-0.230581223964691,-0.142831265926361,D
1526529551.41249,0.0403921369185928,-0.114841243977668,1.3002751666245,0.0470888167619705,-0.220195055007935,-0.15006697177887,D
1526529551.42189,0.0468440340340473,-0.1134997031672,1.30809163803902,0.0482925064861774,-0.207631781697273,-0.151292443275452,D
1526529551.43201,0.0536533677747865,-0.110914873603232,1.31614606057414,0.0489662997424603,-0.192612037062645,-0.137228846549988,D
1526529551.44394,0.0605385017095448,-0.107619572885627,1.32438855446835,0.0334001332521439,-0.158193200826645,-0.131035029888153,D
1526529551.45244,0.0673651068118972,-0.103756732633291,1.33324121705228,0.00656468421220779,-0.133447378873825,-0.103687942028046,D
1526529551.46229,0.0735855966339742,-0.0997756306822447,1.3428451421093,-0.038516104221344,-0.0997017174959183,-0.121710419654846,D
1526529551.47755,0.0796276979789378,-0.096737721103309,1.35402178815214,-0.0885253176093102,-0.0983569324016571,-0.133851587772369,D
1526529551.48245,0.085505567299987,-0.0938028257761225,1.36632829111645,-0.110675990581512,-0.110831461846828,-0.104972660541534,D
1526529551.49309,0.0907016431067104,-0.0899674360345,1.37898852397192,-0.140732854604721,-0.12408684194088,-0.0931755304336548,D
1526529551.50395,0.0954743996925837,-0.0856147097376053,1.39156005184355,-0.194208160042763,-0.132537752389908,-0.113211214542389,D
1526529551.51263,0.100173812439406,-0.0816531022542124,1.40374545845971,-0.231066584587097,-0.135532736778259,-0.110867321491241,D
1526529551.52301,0.105215511124724,-0.0779140987834506,1.41494238643936,-0.254422128200531,-0.134445399045944,-0.0785086154937744,D
1526529551.5327,0.11076827394306,-0.0742939889932885,1.42464777532765,-0.279640048742294,-0.117911577224731,-0.0624895691871643,D
1526529551.54489,0.116309376766618,-0.0709084994188058,1.43273457341362,-0.296465516090393,-0.104448944330215,-0.0614831447601318,D
1526529551.55315,0.12103913477646,-0.0678133420991031,1.4395206256109,-0.293302595615387,-0.101117096841335,-0.0486757159233093,D
1526529551.56294,0.124691917636423,-0.0645296248164317,1.44513957504238,-0.286082237958908,-0.0893871933221817,-0.0163446068763733,D
1526529551.57606,0.127204799714729,-0.0605877743971307,1.44966861075124,-0.283504843711853,-0.0705146938562393,0.00450462102890015,D
1526529551.58328,0.128608764815531,-0.056424370940814,1.45342173254915,-0.286894410848618,-0.0417307429015636,-0.00673949718475342,D
1526529551.59452,0.129294756523863,-0.0525774495445212,1.45693235738875,-0.275729298591614,-0.0262623392045498,-0.0143254399299622,D
1526529551.61313,0.129910867431504,-0.0492947190038789,1.46049353057204,-0.273309290409088,-0.0075572282075882,-0.0113247632980347,D
1526529551.61388,0.131176623864586,-0.0463575782065704,1.46436819960782,-0.286101520061493,0.0217437408864498,-0.019559383392334,D
1526529551.62401,0.13386189693378,-0.0437840989729798,1.46837537188519,-0.2983278632164,0.034507479518652,-0.0342642068862915,D
1526529551.63337,0.137923121004777,-0.0416966480922686,1.47208268386648,-0.294486522674561,0.0320459008216858,-0.0473750829696655,D
1526529551.64725,0.142778685046471,-0.0396618101863084,1.47491232080003,-0.279373943805695,0.0297760739922523,-0.0445691347122192,D
1526529551.65356,0.148045907039341,-0.0369140634169724,1.47683406123222,-0.266591608524323,0.0272270068526268,-0.0208746790885925,D
1526529551.66356,0.152376327177743,-0.0332875612698645,1.47799885022726,-0.236465841531754,0.0240000784397125,0.0138055682182312,D
0,0,0,0,0,0,0,0,0
1526529552.24842,0.0311257571452588,0.0459049963467388,1.34769275312775,0.0164279229938984,0.190923660993576,0.118213653564453,D
1526529552.25736,0.0290299073200139,0.0475781237723733,1.34693799457002,-0.00148138776421547,0.219999745488167,0.0950967073440552,D
1526529552.26718,0.025526534293222,0.0476624615871854,1.34580777821097,-0.0463382825255394,0.265066891908646,0.0975990295410156,D
1526529552.27803,0.0216989431486755,0.0458388844412303,1.34459861035571,-0.0757363364100456,0.295517653226852,0.0803183913230896,D
1526529552.28781,0.018740857872641,0.0424017086579098,1.34314042925247,-0.0859683975577354,0.328338712453842,0.0548034310340881,D
1526529552.29691,0.0175337538644344,0.0375853120915451,1.34131286763909,-0.0890994518995285,0.33736589550972,0.0285743474960327,D
1526529552.30877,0.0176793976192506,0.0316569886485826,1.3393628168563,-0.0790557265281677,0.340245455503464,0.0103748440742493,D
1526529552.31697,0.0183722974569499,0.0252417632886301,1.33758557666592,-0.0527434647083282,0.351685613393784,0.0131998658180237,D
1526529552.32746,0.0193474175823523,0.0193201576092693,1.33663940001028,-0.0471288561820984,0.363557249307632,0.0398026704788208,D
1526529552.33723,0.0205482778463658,0.0146471432557696,1.33684155521388,-0.0478731207549572,0.366911023855209,0.0713521838188171,D
1526529552.34797,0.0216096193791969,0.0112855955460661,1.33820200219373,-0.0323640070855618,0.362725794315338,0.0944752097129822,D
1526529552.35959,0.0226607396771141,0.00891244272947332,1.34059101658532,-0.0297227203845978,0.357102632522583,0.115090489387512,D
1526529552.36797,0.0240320256225602,0.00691063011640217,1.34360552522619,-0.0414394177496433,0.365949869155884,0.123832881450653,D
1526529552.37951,0.0257237614257288,0.00442184997514161,1.34655705991445,-0.0426731891930103,0.374905228614807,0.117228329181671,D
1526529552.38791,0.0274198716000785,0.000531199502194714,1.34897744858758,-0.0424463376402855,0.378979682922363,0.0921074748039246,D
1526529552.39823,0.0289476638630629,-0.00533671426339977,1.35056446469678,-0.0266086142510176,0.374851286411285,0.0616700649261475,D
1526529552.40844,0.0304916368564793,-0.0129818449791751,1.35158555828271,-0.00799288786947727,0.360156953334808,0.0408480167388916,D
1526529552.4184,0.0322727092071271,-0.0215789851380944,1.35263749987581,0.016675341874361,0.337843477725983,0.0325260162353516,D
1526529552.42832,0.0343917306000598,-0.0300315990195923,1.35425944875688,0.0307398065924644,0.319475471973419,0.0303605794906616,D
1526529552.44126,0.0362012305847838,-0.0373826156481522,1.35665317008891,0.0473433174192905,0.295267701148987,0.0323532819747925,D
1526529552.44847,0.0370225405843475,-0.0429736438858187,1.35980096780326,0.0345227755606174,0.290947675704956,0.0386753678321838,D
1526529552.4598,0.0373079101172171,-0.0471585600293004,1.36330005867004,0.00456655398011208,0.292428016662598,0.0336545705795288,D
1526529552.46843,0.0372903222219003,-0.0513394190000755,1.36673240353027,-0.00286976620554924,0.262205481529236,0.00210797786712646,D
1526529552.47857,0.0380562551250595,-0.0565883121399321,1.37021032147936,0.00292264670133591,0.19838573038578,-0.0119671225547791,D
1526529552.48842,0.040415002626799,-0.0631881001694243,1.373664173398,0.0224512927234173,0.143732607364655,-0.0108978152275085,D
1526529552.49889,0.0439344578210359,-0.0708651142905175,1.37709687108523,0.0529458895325661,0.096781462430954,0.00163924694061279,D
1526529552.51217,0.0479020113675515,-0.0789161324924158,1.38061748771654,0.0532174780964851,0.0597155541181564,0.0198378562927246,D
1526529552.51914,0.0516411014551315,-0.0867887093944774,1.38433292061851,0.0515576936304569,0.0334526523947716,0.0362899899482727,D
1526529552.5289,0.0545470692150822,-0.0945169563992487,1.38810294099596,0.0401752218604088,0.00831535458564758,0.0354072451591492,D
1526529552.54502,0.0568421401424093,-0.102252486081533,1.39160864193322,0.0433997586369514,-0.0326926782727242,0.0288604497909546,D
1526529552.54906,0.058529869562415,-0.110431403977518,1.39450803167908,0.0474812015891075,-0.0407185629010201,0.00850307941436768,D
1526529552.55991,0.0602617288835307,-0.119395894311035,1.39703740289933,0.0158107988536358,-0.0230125710368156,-0.0336865186691284,D
1526529552.57083,0.0625352419483921,-0.129355160081377,1.39969118523521,0.00762297213077545,-0.0411346107721329,-0.0805597901344299,D
1526529552.57917,0.0646844678153484,-0.139456586079642,1.40331339418098,0.0348346084356308,-0.117429062724113,-0.0911250114440918,D
1526529552.5901,0.0666288369161388,-0.14833938353705,1.40861162819367,0.0568628162145615,-0.193358704447746,-0.0932547450065613,D
1526529552.59923,0.0694750588589497,-0.156485515363208,1.41531162458573,0.0948659330606461,-0.284021466970444,-0.136214375495911,D
1526529552.61208,0.0728548225553731,-0.164287898453425,1.42377925590383,0.0445227324962616,-0.393728703260422,-0.149748980998993,D
1526529552.61982,0.0771829299558546,-0.171752217701632,1.43320557564583,0.00140547752380371,-0.443690419197083,-0.153129279613495,D
1526529552.62942,0.0820720451691771,-0.178918291692403,1.44259993996405,-0.0403728112578392,-0.50221449136734,-0.161167025566101,D
1526529552.64348,0.0868565307896903,-0.185664358563184,1.45110551780757,-0.063070222735405,-0.555098176002502,-0.162080645561218,D
1526529552.64902,0.090709761485346,-0.191935541069831,1.45765441053166,-0.0587553605437279,-0.590325891971588,-0.171385765075684,D
1526529552.65908,0.09336610618191,-0.198001670584588,1.46222004214906,-0.0501339137554169,-0.636072039604187,-0.200947999954224,D
1526529552.67072,0.0952033204482531,-0.203928364532953,1.46546987969434,-0.0553395599126816,-0.674991011619568,-0.243265151977539,D
1526529552.68031,0.0968152724590398,-0.209086624677099,1.46812507213663,-0.0590669065713882,-0.706956148147583,-0.277672290802002,D
1526529552.6937,0.0984784710422069,-0.212362214222703,1.47058974392146,-0.0463365316390991,-0.7513427734375,-0.280786275863647,D
1526529552.6998,0.1000963338265,-0.212806188614943,1.47311873617838,-0.0392644330859184,-0.78247743844986,-0.251937747001648,D
1526529552.71193,0.101462023376911,-0.210347360675422,1.47583312099522,-0.048991397023201,-0.781599283218384,-0.20894056558609,D
1526529552.72056,0.102241824787959,-0.206009424527413,1.47873350132179,-0.0718905180692673,-0.753337681293488,-0.175258815288544,D
1526529552.73013,0.10218597444345,-0.200846300253302,1.48137812027348,-0.0999424159526825,-0.720601558685303,-0.151434183120728,D
1526529552.74631,0.101424199553157,-0.19546518078136,1.48274911530387,-0.135760322213173,-0.670388638973236,-0.151647210121155,D
1526529552.75015,0.0998340135841656,-0.190320149655477,1.48179437410146,-0.14495724439621,-0.626642763614655,-0.173046350479126,D
1526529552.76037,0.0967417270349838,-0.185167445122932,1.47823640226859,-0.117614269256592,-0.587049961090088,-0.194206357002258,D
1526529552.77542,0.0922882927202893,-0.179031168167629,1.47268881456134,-0.0754713416099548,-0.543371737003326,-0.201216399669647,D
1526529552.7804,0.0868612483577849,-0.171013113788476,1.4665059991513,-0.0325538590550423,-0.502120494842529,-0.196265459060669,D
1526529552.79073,0.0811481603977232,-0.160894006762602,1.46085013484951,0.00914490222930908,-0.466185212135315,-0.1732377409935,D
1526529552.80037,0.0756382090621137,-0.148857972581924,1.4566278539657,0.0377421081066132,-0.439522802829742,-0.123765051364899,D
1526529552.81111,0.0704065695822773,-0.135405299870864,1.45413093287585,0.039517916738987,-0.399289399385452,-0.0643882751464844,D
1526529552.82055,0.0653880835963912,-0.121486996797334,1.45300602363075,0.00235506147146225,-0.331713885068893,-0.0264900326728821,D
1526529552.83056,0.0603877254540435,-0.108228433037632,1.4519871719588,-0.0658267736434937,-0.248871147632599,-0.0288728475570679,D
1526529552.84108,0.0550889440935933,-0.0961510293977966,1.44968991929404,-0.0752687975764275,-0.218088507652283,-0.0336405634880066,D
1526529552.85115,0.0491754194157058,-0.0847526246939018,1.44529826128457,-0.0582565106451511,-0.197459429502487,-0.0253932476043701,D
1526529552.86087,0.0430463078097296,-0.073569115606889,1.43900054828273,-0.0862668305635452,-0.140565156936646,-0.0299960374832153,D
1526529552.87158,0.0370233429293902,-0.063048047055522,1.43128445214826,-0.0857236906886101,-0.0675686597824097,-0.046845018863678,D
1526529552.88049,0.0316605505366576,-0.0536781018231805,1.42343837166105,-0.0925532728433609,-0.0254235677421093,-0.0552091598510742,D
1526529552.89143,0.0276786060997607,-0.0452589026671626,1.41657239620387,-0.10268945991993,0.00620918720960617,-0.0232419967651367,D
1526529552.90073,0.0249956253068393,-0.0372414041082303,1.41104226551578,-0.117657579481602,0.0432573147118092,0.0407577753067017,D
1526529552.91069,0.0226957055782058,-0.0293602025243156,1.40671489346111,-0.176782488822937,0.081880584359169,0.103696942329407,D
1526529552.92062,0.0203207982716897,-0.0216522002056564,1.40257562032965,-0.267507016658783,0.1233079880476,0.161226034164429,D
1526529552.93121,0.0176459030628304,-0.0150552382219898,1.39725175234091,-0.340213775634766,0.166997939348221,0.191030442714691,D
1526529552.94222,0.0136369592281078,-0.0103593769961586,1.38980394470076,-0.405008494853973,0.223298639059067,0.196752786636353,D
1526529552.95142,0.00785709632473456,-0.00782320439989539,1.3796540843146,-0.449186742305756,0.308323740959167,0.188277781009674,D
1526529552.96143,0.000954819114155644,-0.00769689283422964,1.36680081278194,-0.47107806801796,0.412774384021759,0.135788381099701,D
1526529552.97235,-0.00589690679404343,-0.00999771546840165,1.3521720098842,-0.483834266662598,0.488949596881866,0.0525602102279663,D
1526529552.98185,-0.0119133203738606,-0.0137638242284265,1.33728848508423,-0.439458340406418,0.508239805698395,0.00424408912658691,D
1526529552.9933,-0.0171435504756786,-0.0175307115072355,1.32368628592189,-0.377635300159454,0.503222167491913,-0.0162155032157898,D
1526529553.00156,-0.0210283785426213,-0.0202219625447015,1.31227506414662,-0.34755352139473,0.504285037517548,-0.0300580859184265,D
1526529553.0124,-0.0231137422648006,-0.0213309967543031,1.3029977228361,-0.342997699975967,0.495485812425613,-0.0349794030189514,D
1526529553.02186,-0.023528760235009,-0.0208537305858005,1.29428116857908,-0.342155396938324,0.479437708854675,-0.0172025561332703,D
1526529553.03208,-0.0234641106512467,-0.0192124930780728,1.28449966109259,-0.336008936166763,0.477630108594894,0.0157297849655151,D
1526529553.04527,-0.0237085591855145,-0.0170336087845766,1.27281111967647,-0.31780406832695,0.489284366369247,0.0497448444366455,D
1526529553.05201,-0.024540774517082,-0.0150047365257998,1.26003195401493,-0.266815781593323,0.497492760419846,0.0837233066558838,D
1526529553.06222,-0.0260889050154859,-0.013308592726545,1.24737017153477,-0.208215072751045,0.505505859851837,0.111814856529236,D
1526529553.07518,-0.0279308548253644,-0.0118812905470545,1.23640035574268,-0.147398233413696,0.488057941198349,0.129635810852051,D
1526529553.08222,-0.0296142717300044,-0.0107478970095207,1.22759337885252,-0.0832457691431046,0.442148417234421,0.136512458324432,D
1526529553.09227,-0.0303464884246243,-0.00999306248185821,1.22100483971092,-0.042627215385437,0.398820579051971,0.147560954093933,D
1526529553.10229,-0.0298540628825359,-0.00996291079134523,1.21593948691358,-0.0263957493007183,0.35943728685379,0.149727582931519,D
1526529553.11309,-0.0291315484054891,-0.0107248100016119,1.21177893896695,-0.0372804999351501,0.336534917354584,0.145376980304718,D
1526529553.12334,-0.0288199324643835,-0.0116685787468027,1.20698342537143,-0.0464423671364784,0.323887705802917,0.150319278240204,D
1526529553.13257,-0.0294275651723584,-0.0124674571930433,1.20105674913984,-0.00927525758743286,0.314040422439575,0.141502916812897,D
1526529553.14366,-0.0312032647803746,-0.0130641725618647,1.19400450639396,0.0537480302155018,0.300229668617249,0.132362484931946,D
1526529553.15309,-0.033974468739165,-0.0135027752725795,1.18696501661569,0.132994383573532,0.293275594711304,0.128772139549255,D
1526529553.16309,-0.0375522099396008,-0.0140090063987819,1.18045031743124,0.194186434149742,0.295027703046799,0.112722337245941,D
1526529553.17687,-0.0417723857322801,-0.0147615813733987,1.17535596320603,0.22283174097538,0.296838700771332,0.0789748430252075,D
1526529553.18288,-0.04605608117511,-0.0156328500811138,1.17155851739512,0.215406730771065,0.299705922603607,0.0473557710647583,D
1526529553.19268,-0.0498916780003622,-0.0163723326394596,1.16890799045785,0.210081577301025,0.306885838508606,0.0200146436691284,D
1526529553.20423,-0.0532463501704087,-0.0170131014244089,1.16702091661361,0.207159414887428,0.289765685796738,-0.00127184391021729,D
1526529553.21315,-0.0562983211804985,-0.0178028336836363,1.16562405857529,0.232285052537918,0.267079710960388,-0.00780028104782104,D
1526529553.22371,-0.0591645552831699,-0.0190490670048668,1.16463965486185,0.260199636220932,0.240092098712921,0.000174880027770996,D
1526529553.23316,-0.061635133532865,-0.0211152764039608,1.16428600200261,0.274549305438995,0.222599670290947,-0.00486791133880615,D
1526529553.2442,-0.0637070059205436,-0.0241824413921023,1.16461855762123,0.283020913600922,0.195638030767441,-0.0231181383132935,D
1526529553.25351,-0.0654193196747365,-0.0279501936171954,1.16509346536359,0.280602872371674,0.180076509714127,-0.0358540415763855,D
1526529553.26323,-0.0667473289900886,-0.0317494776691165,1.16590112319447,0.289198338985443,0.149026721715927,-0.0368025302886963,D
1526529553.27404,-0.067794962877591,-0.0353204911596852,1.16693186983055,0.294751584529877,0.125071987509727,-0.0364125370979309,D
1526529553.28354,-0.0682406611239138,-0.0385165693463122,1.1685076112707,0.290671318769455,0.111715734004974,-0.0281681418418884,D
1526529553.29344,-0.0679517582460323,-0.0416741932296688,1.17048210174041,0.282913148403168,0.100351423025131,-0.0274965763092041,D
1526529553.31482,-0.0668165009214919,-0.0452557429611934,1.17290617910007,0.280733466148376,0.0829335302114487,-0.0253782272338867,D
1526529553.31618,-0.0649044575866535,-0.0493031151918687,1.1753918564446,0.283163875341415,0.0461605787277222,-0.0159981846809387,D
1526529553.32335,-0.062946653276066,-0.0535870134161482,1.17816093421837,0.288736432790756,0.0274780578911304,-0.0124157667160034,D
1526529553.33332,-0.0615736565321533,-0.0576578990671984,1.18112839001535,0.283890396356583,0.000464253127574921,-0.00655966997146606,D
1526529553.34429,-0.0604281474616613,-0.0612460744009852,1.18441241926645,0.276388376951218,-0.000264186412096024,-0.0036662220954895,D
1526529553.35406,-0.0586120670573213,-0.0645883492762658,1.1876770623311,0.280441224575043,-0.0177600085735321,-0.0133812427520752,D
1526529553.36385,-0.0555307644398841,-0.068222292332113,1.1910121917332,0.292464196681976,-0.0325401127338409,-0.0174596905708313,D
1526529553.37664,-0.0510122322183267,-0.0726429442008252,1.19442685507931,0.292417526245117,-0.0254751890897751,-0.0192393064498901,D
1526529553.38325,-0.0457306182411895,-0.0781475790009084,1.19867858083088,0.302670508623123,-0.0378306359052658,-0.0266925096511841,D
1526529553.39339,-0.0399961693000253,-0.0844310593949249,1.20393962263451,0.285814762115479,-0.0403854697942734,-0.0410564541816711,D
1526529553.40353,-0.0336708616575739,-0.0907858463437423,1.21013156262347,0.263933569192886,-0.0696803480386734,-0.0709363222122192,D
1526529553.41364,-0.0265341118890086,-0.0966291536013058,1.21606896770279,0.251764297485352,-0.116971403360367,-0.0977734923362732,D
1526529553.4243,-0.0190582260266762,-0.101566833471068,1.22126284132433,0.245429813861847,-0.157300502061844,-0.101556062698364,D
1526529553.43386,-0.0120382495128999,-0.105428679302093,1.22541235910956,0.228752732276917,-0.169244095683098,-0.09079909324646,D
1526529553.44448,-0.00641548808617607,-0.108438747445988,1.22896830493312,0.236846506595612,-0.177318155765533,-0.0747113227844238,D
1526529553.4545,-0.002063551379569,-0.110679139075349,1.23242272196634,0.249014422297478,-0.170862853527069,-0.0518971681594849,D
1526529553.46471,0.00245699551412127,-0.112505489572858,1.23670031038273,0.241744935512543,-0.157449573278427,-0.0522387623786926,D
1526529553.47917,0.00788052704015184,-0.114734029245214,1.24211355121364,0.23498447239399,-0.161128595471382,-0.0625442862510681,D
1526529553.48462,0.0143469687427181,-0.11752243930186,1.2491045269612,0.24356497824192,-0.148929342627525,-0.0586205124855042,D
1526529553.49475,0.0224201785026224,-0.121289393801604,1.25652440920906,0.248559385538101,-0.157201334834099,-0.0959444046020508,D
1526529553.50858,0.0308995386335613,-0.125227433544083,1.26487576721534,0.177934944629669,-0.182853266596794,-0.108386754989624,D
1526529553.515,0.0399930488756277,-0.128311406424475,1.2734350972655,0.151676252484322,-0.19383180141449,-0.115596294403076,D
1526529553.52653,0.049565093009938,-0.129990362075184,1.2821025586115,0.122961826622486,-0.226395830512047,-0.121913492679596,D
1526529553.53496,0.0586631543010417,-0.130222647590624,1.29056508510139,0.0927915871143341,-0.229067549109459,-0.113672971725464,D
1526529553.54517,0.0667989036598539,-0.129043794759144,1.2990806438704,0.0505354851484299,-0.219124794006348,-0.0894752740859985,D
1526529553.55525,0.074332580015716,-0.12673165895555,1.3075711080697,0.00250330567359924,-0.207462638616562,-0.0608383417129517,D
1526529553.56537,0.0811415026201933,-0.123925255589482,1.3158745058062,-0.0211962908506393,-0.205074980854988,-0.0352563858032227,D
1526529553.57812,0.0867020904940366,-0.120921991501821,1.32390835396057,-0.0422142371535301,-0.192496418952942,-0.00837600231170654,D
1526529553.58526,0.091471217256762,-0.117600953789658,1.33208109737786,-0.0797264724969864,-0.179158687591553,0.0185280442237854,D
1526529553.59538,0.0956172573786951,-0.11425002748793,1.34059545261746,-0.115601152181625,-0.161059737205505,0.0256093740463257,D
1526529553.61141,0.100049736581666,-0.11093560833663,1.34968695593971,-0.160151481628418,-0.146718949079514,0.0485142469406128,D
1526529553.61568,0.104901053755681,-0.108483669638411,1.35905826402425,-0.186399132013321,-0.12932813167572,0.0375152826309204,D
1526529553.62633,0.110247962681929,-0.108202423184494,1.36894727361212,-0.216421723365784,-0.120701983571053,0.0380582213401794,D
1526529553.63728,0.115683559660716,-0.109226434888779,1.37868081286393,-0.258185744285583,-0.112351052463055,0.0541080832481384,D
1526529553.64562,0.1197163115269,-0.110170734530202,1.38763612771384,-0.303566724061966,-0.108605235815048,0.0375129580497742,D
1526529553.65579,0.122032931339448,-0.11045273083604,1.39513322246875,-0.303712487220764,-0.0881793349981308,0.00232291221618652,D
1526529553.6658,0.12296645684204,-0.110581675980392,1.40058984599511,-0.293950468301773,-0.079411618411541,-0.040193498134613,D
1526529553.67883,0.123118567807315,-0.110568182024036,1.40438409527946,-0.314471185207367,-0.0407629534602165,-0.0602758526802063,D
1526529553.68671,0.12386038498263,-0.110484194175423,1.40707652447157,-0.296313613653183,-0.00802566856145859,-0.0815061330795288,D
1526529553.69604,0.125178530895639,-0.110421681732616,1.40973554404541,-0.279197096824646,0.00334321707487106,-0.105862498283386,D
1526529553.71075,0.126674034520527,-0.109924255163829,1.41303135131556,-0.280098795890808,0.0248489901423454,-0.109183967113495,D
1526529553.71625,0.128685481561316,-0.108601329933801,1.41683883157825,-0.290217995643616,0.0338849723339081,-0.0988279581069946,D
1526529553.72691,0.131091298282506,-0.106165045787692,1.4204335964816,-0.297124981880188,0.033102884888649,-0.0999469757080078,D
1526529553.74039,0.134197412218225,-0.102882212435285,1.42307508422718,-0.297363638877869,0.0188049226999283,-0.0954079031944275,D
1526529553.74617,0.137527793478917,-0.0989612535787538,1.42446720533817,-0.294031947851181,0.0154580101370811,-0.0839449167251587,D
1526529553.75678,0.141004557130992,-0.0944167429217363,1.42456596613372,-0.27948397397995,0.024131678044796,-0.0601871013641357,D
1526529553.76663,0.144959093204728,-0.0888455955042618,1.42404452445665,-0.262854993343353,0.0137340128421783,-0.0280323624610901,D
1526529553.77876,0.149305512797658,-0.0826307733848656,1.42299390238171,-0.20349594950676,0.0227030962705612,-0.00632071495056152,D
1526529553.78682,0.153147698948114,-0.0768546174570613,1.42172392969474,-0.175582706928253,-0.00185832381248474,0.039196252822876,D
0,0,0,0,0,0,0,0,0
1526529554.44833,0.0488318019703381,0.0164118078661232,1.3466034526272,-0.0669637843966484,0.26789116859436,0.0167245864868164,D
1526529554.45098,0.0458029584340373,0.0180227702874401,1.34524799913937,-0.0260346345603466,0.268372744321823,-0.0133264660835266,D
1526529554.46072,0.042446716525555,0.0191978176671418,1.34476972174568,-0.0433416776359081,0.293351292610168,-0.00122213363647461,D
1526529554.47641,0.0409968147191462,0.0203379665097999,1.34502320487953,-0.0641549527645111,0.315914571285248,0.0284483432769775,D
1526529554.48084,0.0415688117914171,0.0215054861684286,1.34581962864058,-0.0543951317667961,0.308369070291519,0.0491980910301208,D
1526529554.49336,0.0432173480391459,0.0222974589355973,1.34705534751996,-0.0460160300135612,0.296267181634903,0.0800251960754395,D
1526529554.50101,0.0446856286164937,0.0223417378850753,1.34865160856219,-0.0453004762530327,0.303055822849274,0.107471346855164,D
1526529554.51177,0.0455802334110298,0.0219653680890625,1.35074690684134,-0.0505430847406387,0.301199436187744,0.137712717056274,D
1526529554.52067,0.0460688289918142,0.0215274685392509,1.35310642846681,-0.0479492135345936,0.299449384212494,0.150654554367065,D
1526529554.5306,0.0462511234110358,0.0207889573770834,1.35534114265094,-0.0333462283015251,0.296147555112839,0.131389915943146,D
1526529554.54423,0.046497352906422,0.0194045532830862,1.35743727526829,-0.0316403061151505,0.29490077495575,0.109387874603271,D
1526529554.5511,0.0473772718990098,0.0174164772786481,1.3594386109373,-0.0219617411494255,0.29355388879776,0.102638781070709,D
1526529554.56164,0.0488776034036922,0.0148458659197616,1.36138654778291,-0.00258810818195343,0.295103490352631,0.0989611744880676,D
1526529554.57658,0.0510515197106964,0.0115887270068474,1.36374119276751,0.0144495442509651,0.289237380027771,0.100482523441315,D
1526529554.58084,0.054358779485541,0.00741420813308531,1.36677261330425,0.0223601534962654,0.295179635286331,0.0988372564315796,D
1526529554.59146,0.0592089132743527,0.00195636875334908,1.37040499377326,0.0269311368465424,0.298022657632828,0.0912023186683655,D
1526529554.60098,0.0651539910123289,-0.00505449254865876,1.37452287698586,0.0263388529419899,0.286205291748047,0.074479877948761,D
1526529554.61121,0.0707813089186597,-0.0132761518390241,1.37878769266367,0.0124596655368805,0.294570297002792,0.0591146945953369,D
1526529554.62111,0.0751127291273245,-0.0210970095925295,1.38311787786347,0.0121327787637711,0.274574100971222,0.0763193964958191,D
1526529554.63124,0.0776244733078139,-0.0271919240233502,1.38756332603372,0.033856026828289,0.24067947268486,0.0944747924804688,D
1526529554.64409,0.0787446778531221,-0.0307800756603493,1.39214342240991,0.0285211503505707,0.215928882360458,0.101714670658112,D
1526529554.65295,0.0804489684300727,-0.0322002439410324,1.39656833208809,0.0069139376282692,0.194444119930267,0.105044186115265,D
1526529554.66203,0.0841788972689644,-0.0331377686116119,1.40038663191956,-0.00882278382778168,0.164896860718727,0.0910505056381226,D
1526529554.67837,0.0899966632371639,-0.0359012430967939,1.40345848207315,-0.0262034237384796,0.123347193002701,0.0708575248718262,D
1526529554.68216,0.0969576300749576,-0.041895589607254,1.4063396965405,-0.0138045847415924,0.0652181059122086,0.0597375631332397,D
1526529554.69305,0.103887332705682,-0.0508370563777071,1.40993502498522,-0.00183624029159546,-0.000293314456939697,0.0663521885871887,D
1526529554.70218,0.110212295303704,-0.0611782832235572,1.41436901467587,-0.00898397713899612,-0.0401745513081551,0.0769426822662354,D
1526529554.71222,0.114995736700576,-0.0718174271894265,1.41881041942628,-0.00969509035348892,-0.0571377873420715,0.0468495488166809,D
1526529554.7223,0.118096845825605,-0.0824349935971174,1.42293810958381,-0.022329643368721,-0.071416363120079,-0.00643128156661987,D
1526529554.73245,0.120238560247858,-0.0925150389210563,1.42650537863124,-0.0348108410835266,-0.070135809481144,-0.0551362037658691,D
1526529554.7442,0.121885837503709,-0.101307456219155,1.42978802620087,-0.0265700146555901,-0.1005849391222,-0.0793873071670532,D
1526529554.75192,0.123578642861863,-0.108580032128129,1.43294734676022,-0.0107678025960922,-0.133406475186348,-0.0896726250648499,D
1526529554.76215,0.125532375760117,-0.11496446799421,1.43640562282407,-0.00772301107645035,-0.164287194609642,-0.102842748165131,D
1526529554.77244,0.127491628262838,-0.120827441760432,1.44024887264585,-0.0153796970844269,-0.196095168590546,-0.100812137126923,D
1526529554.78213,0.129356897057586,-0.12670199769629,1.44399361863223,-0.0216239094734192,-0.206319332122803,-0.105522096157074,D
1526529554.79188,0.130911329436633,-0.133023165518951,1.44761709985869,-0.0218710601329803,-0.228670015931129,-0.107022047042847,D
1526529554.80201,0.13193708111249,-0.139538038474344,1.4510004689747,-0.018657922744751,-0.234086871147156,-0.112259387969971,D
1526529554.81217,0.132571068519646,-0.146093744516189,1.45411498030928,-0.030158519744873,-0.233602568507195,-0.138505101203918,D
1526529554.82232,0.133330808589469,-0.152238023564479,1.45702309254291,-0.0381063669919968,-0.251153230667114,-0.154142916202545,D
1526529554.83252,0.134003130161287,-0.157443912912782,1.45935399891743,-0.0264964699745178,-0.267298400402069,-0.162687063217163,D
1526529554.8424,0.134244779745827,-0.161603882834327,1.46141960667208,-0.0106075555086136,-0.300717681646347,-0.167478442192078,D
1526529554.85264,0.134109372995064,-0.164448321916921,1.46376396539732,-2.21431255340576e-05,-0.338192373514175,-0.163370966911316,D
1526529554.86248,0.133669103817324,-0.165965034948026,1.46679774269753,0.00625514984130859,-0.374768376350403,-0.159989655017853,D
1526529554.87318,0.132776733669188,-0.166281535223885,1.47033946277496,0.0155267119407654,-0.412800252437592,-0.156201481819153,D
1526529554.88278,0.131284914252691,-0.165844598204993,1.47402143655035,0.0141528248786926,-0.43962150812149,-0.153403222560883,D
1526529554.89266,0.128593116907858,-0.164851895783402,1.47791576339823,0.0267435908317566,-0.47089946269989,-0.132465660572052,D
1526529554.90315,0.124774250601107,-0.163517706565628,1.48243269038807,0.032391220331192,-0.48847359418869,-0.129164040088654,D
1526529554.91284,0.121364699087107,-0.162476334973891,1.48777099851768,0.0168953016400337,-0.51446932554245,-0.154599606990814,D
1526529554.92301,0.119528995982613,-0.16194544888431,1.49329165836426,0.0101080387830734,-0.562346279621124,-0.172408998012543,D
1526529554.93309,0.119114872421537,-0.161318534114086,1.497882731193,-0.00205612927675247,-0.594579696655273,-0.165378451347351,D
1526529554.94305,0.118548869621792,-0.159444657458049,1.50071432918094,-0.0144457444548607,-0.597978949546814,-0.133017361164093,D
1526529554.95283,0.116379076280383,-0.155264154965734,1.50175405748552,-0.0284923240542412,-0.587807595729828,-0.0886738896369934,D
1526529554.96309,0.112060459158675,-0.148519446410475,1.50130739151797,-0.0304405838251114,-0.565179824829102,-0.05059814453125,D
1526529554.97364,0.105911449567156,-0.140111791801179,1.49976683898098,-0.027834340929985,-0.52618944644928,-0.037091851234436,D
1526529554.98306,0.0986620543110379,-0.131591738549598,1.49763131180701,-0.01717559248209,-0.484712660312653,-0.0470819473266602,D
1526529554.99324,0.0915288045027544,-0.124013694681609,1.49560444144835,-0.0177163332700729,-0.434929579496384,-0.0612262487411499,D
1526529555.00348,0.0856147308859698,-0.117257188994041,1.49443863851168,-0.0387346521019936,-0.402053356170654,-0.0818238854408264,D
1526529555.01336,0.0822697277782459,-0.110618915064096,1.49351492015774,-0.0717717334628105,-0.388805329799652,-0.0947702527046204,D
1526529555.02423,0.080797376442635,-0.103529643349964,1.49138110407826,-0.0392464622855186,-0.385067820549011,-0.0758752822875977,D
1526529555.03347,0.0794310800668727,-0.0954146408558469,1.48777954869562,-0.0271067768335342,-0.368646383285522,-0.0305448174476624,D
1526529555.04379,0.0766450802456738,-0.0859607985678362,1.48340207083263,-0.033242292702198,-0.330041378736496,0.0219624042510986,D
1526529555.05362,0.0716877224531533,-0.0750906285931892,1.47874714204041,-0.0220623090863228,-0.289833307266235,0.076911449432373,D
1526529555.06373,0.0651098127234379,-0.0637600588423078,1.47391613362098,-0.0273186936974525,-0.228679627180099,0.0915412902832031,D
1526529555.07385,0.0583980338047403,-0.053679289352112,1.4691843224081,-0.0651014596223831,-0.173984318971634,0.0539100170135498,D
1526529555.08375,0.0531534117362722,-0.0464713758564946,1.46474396542082,-0.104508399963379,-0.12334369122982,-0.00213944911956787,D
1526529555.09393,0.0500810832497559,-0.0429108472599866,1.46049750952128,-0.119945093989372,-0.0873465314507484,-0.0451571941375732,D
1526529555.10465,0.048793595738431,-0.0417157974943782,1.45631972715918,-0.134089469909668,-0.0696578025817871,-0.0384970903396606,D
1526529555.11403,0.0482563605334861,-0.0405621014660323,1.45179097558897,-0.140940874814987,-0.0539024211466312,-0.000429272651672363,D
1526529555.12402,0.0472889767796034,-0.0374175138120949,1.44642708384865,-0.150311380624771,-0.0459079295396805,0.0558305978775024,D
1526529555.13413,0.0445755033261127,-0.0320105867394862,1.43968090881027,-0.164365187287331,0.000831793993711472,0.0873315334320068,D
1526529555.14425,0.0399460430919919,-0.0257808675069875,1.43165971138017,-0.204320341348648,0.072290226817131,0.081160843372345,D
1526529555.1542,0.0342993673258713,-0.0203742825876682,1.42298115194095,-0.256636589765549,0.156873226165771,0.0418679714202881,D
1526529555.16423,0.0290810552726609,-0.017170654571179,1.41382067233697,-0.301472574472427,0.276409298181534,-0.0362604856491089,D
1526529555.17446,0.0255095277431822,-0.0166308007203325,1.4047485060199,-0.317464888095856,0.33511558175087,-0.114233136177063,D
1526529555.18451,0.0245708754636481,-0.0175700996885887,1.39656251968425,-0.313657641410828,0.326348662376404,-0.131696999073029,D
1526529555.19446,0.0268850217437546,-0.0180768466001565,1.38907415916347,-0.309531211853027,0.306905835866928,-0.0949766039848328,D
1526529555.20477,0.0312728850602784,-0.0174005998638114,1.38164766372398,-0.295957267284393,0.277476370334625,-0.0356591939926147,D
1526529555.21464,0.0361367355159669,-0.0162044185906351,1.37391670551996,-0.32631579041481,0.267563998699188,0.012201189994812,D
1526529555.22467,0.0397776592900695,-0.0153519182615899,1.36547160092042,-0.361051559448242,0.281477898359299,0.0458746552467346,D
1526529555.2347,0.0402066265461224,-0.0144924781454576,1.35581296079123,-0.364074647426605,0.29291158914566,0.0859857201576233,D
1526529555.24487,0.0368863765509003,-0.0127036770657352,1.34424460408886,-0.345819741487503,0.31153067946434,0.0942708849906921,D
1526529555.2548,0.0312583823270423,-0.0094241425051183,1.33097595108526,-0.328798294067383,0.32553693652153,0.0683605670928955,D
1526529555.26494,0.0256851448419805,-0.00481605543389638,1.31659136698107,-0.309846460819244,0.333379775285721,0.0412387847900391,D
1526529555.27533,0.0222685336783654,-0.000131346564198186,1.30147800107278,-0.259311974048615,0.360510140657425,0.0297508239746094,D
1526529555.28503,0.0211860766515996,0.0033437380728793,1.28677425060554,-0.226384565234184,0.387010723352432,0.0442188382148743,D
1526529555.29511,0.0218932211424555,0.00485346908763224,1.27375063692066,-0.204493135213852,0.412171572446823,0.0659412145614624,D
1526529555.30857,0.0234779980922667,0.00451763891572988,1.26274194307136,-0.17836757004261,0.408600866794586,0.090015709400177,D
1526529555.31523,0.0251604473450369,0.00322128062328225,1.25327231972648,-0.152904242277145,0.387483358383179,0.108977019786835,D
1526529555.32529,0.026243279085812,0.001862612664503,1.24453715165443,-0.133112788200378,0.366456121206284,0.128850102424622,D
1526529555.3352,0.0261312632240807,0.00101553841083919,1.23620372790283,-0.120564922690392,0.352181315422058,0.132531642913818,D
1526529555.3455,0.024984210965266,0.000831468041891742,1.22795948753335,-0.115298375487328,0.326667636632919,0.129372000694275,D
1526529555.35541,0.0234238013493952,0.00120930716726689,1.21952639740343,-0.0896600484848022,0.30200582742691,0.138778269290924,D
1526529555.36558,0.0218418363109156,0.00185938919900217,1.21067376730643,-0.0669603049755096,0.292142599821091,0.148944914340973,D
1526529555.37603,0.0205830794506479,0.00199139354450847,1.20176649832063,-0.0513280443847179,0.298500180244446,0.142944157123566,D
1526529555.38605,0.0197687093559435,0.00082444796586258,1.19271121035609,-0.032676350325346,0.300140857696533,0.125689268112183,D
1526529555.39594,0.0192998216720789,-0.00169392871649056,1.18406131366988,0.00185008533298969,0.292251378297806,0.11637419462204,D
1526529555.41107,0.0191249427785875,-0.00473109744512942,1.17592483953084,0.0405077859759331,0.275298207998276,0.122974872589111,D
1526529555.41609,0.0187948543897144,-0.00742780470789033,1.16862870180988,0.0702265501022339,0.264163464307785,0.128778338432312,D
1526529555.42648,0.0180060762527077,-0.00950566764568335,1.16194107522585,0.0845652893185616,0.253342390060425,0.133825898170471,D
1526529555.43675,0.0164646854341507,-0.0110557919571193,1.155571028056,0.0963605493307114,0.254905134439468,0.127595722675323,D
1526529555.44651,0.0140469459018784,-0.0124335660290714,1.14937004273546,0.112480476498604,0.245974346995354,0.112525463104248,D
1526529555.45703,0.0116508965074486,-0.0139933719910299,1.14344204146226,0.136574387550354,0.229934081435204,0.109102427959442,D
1526529555.46642,0.0104074444417887,-0.0162199257734191,1.13807183804397,0.158630982041359,0.220536157488823,0.0938695073127747,D
