Time,Roll,Pitch,Yaw,AccelX,AccelY,AccelZ,Letter,Name
1526528198.79496,0.0266968840678772,-0.0435297051171177,0.97150155903347,-0.0554159842431545,-0.0564401522278786,0.0349058508872986,A
1526528198.80872,0.0275323294455267,-0.0429899647373358,0.973827594003911,-0.0601572245359421,-0.0809558480978012,0.0809423327445984,A
1526528198.81069,0.0254815153539039,-0.0432548690179383,0.975858211936678,-0.0328249223530293,-0.104246020317078,0.0300208330154419,A
1526528198.8236,0.0225487971431377,-0.0437786813174235,0.977737562420902,-0.078006237745285,-0.130343064665794,0.0421380996704102,A
1526528198.83082,0.0197319255072632,-0.0442235628914654,0.979103858108574,-0.106259204447269,-0.146717697381973,0.0398434400558472,A
1526528198.84093,0.0169043461947189,-0.0450447372567724,0.979364723653079,-0.0953013151884079,-0.181137904524803,0.00616717338562012,A
1526528198.85113,0.0139603097806834,-0.0463703521993343,0.978769229250154,-0.0958540290594101,-0.216977521777153,-0.0191013216972351,A
1526528198.86039,0.0114894679980728,-0.0475879200851514,0.977941374759254,-0.113359145820141,-0.276161879301071,-0.0245439410209656,A
1526528198.87115,0.00957429180518545,-0.0482820385846135,0.976625178110161,-0.1370959430933,-0.282607764005661,-0.0364283919334412,A
1526528198.88046,0.00819385614497397,-0.0487546608212312,0.974738531732686,-0.161687448620796,-0.27500793337822,-0.0698710680007935,A
1526528198.89059,0.00709792263199558,-0.0491401176999324,0.97223254395422,-0.167474433779716,-0.311647802591324,-0.0952416658401489,A
1526528198.90053,0.00617213775619124,-0.0490636929081544,0.969149049624723,-0.156952023506165,-0.329134345054626,-0.0967424511909485,A
1526528198.91084,0.00581239793520208,-0.0477229134431678,0.96627270599923,-0.153968587517738,-0.3968106508255,-0.0646624565124512,A
1526528198.92403,0.00601745339967447,-0.0447119859872991,0.96333451503221,-0.148635298013687,-0.438831597566605,-0.0418042540550232,A
1526528198.93277,0.00599500402334026,-0.040565642802704,0.959832718593366,-0.15224552154541,-0.42496919631958,-0.0162214636802673,A
1526528198.94137,0.00528741100365419,-0.0362113805502148,0.955735371129478,-0.170811265707016,-0.421320050954819,0.012269914150238,A
1526528198.95942,0.0037025069518804,-0.0322829802976729,0.95090191262375,-0.180061653256416,-0.396764069795609,0.0345825552940369,A
1526528198.96185,0.00149263512778069,-0.0292972130695629,0.945264740484706,-0.16161772608757,-0.374858826398849,0.0319031476974487,A
1526528198.97304,-0.00115577674450381,-0.0273711814294079,0.938933451946148,-0.135990649461746,-0.329323947429657,0.00275284051895142,A
1526528198.98172,-0.00376863478274693,-0.0264385375349811,0.932562932409065,-0.103807151317596,-0.290031045675278,-0.0309809446334839,A
1526528198.99215,-0.00565835536554757,-0.0257163057632811,0.927044219028498,-0.0964248478412628,-0.250658541917801,-0.0603137016296387,A
1526528199.00184,-0.00641448523565149,-0.024641879819706,0.922939264865411,-0.0877342373132706,-0.21529795229435,-0.0722388625144958,A
1526528199.01189,-0.00588967179703134,-0.0229693484271146,0.920158028934565,-0.0663165077567101,-0.199084267020226,-0.0661838054656982,A
1526528199.0243,-0.00446859846766103,-0.0207076622046019,0.918390563506533,-0.0434144549071789,-0.174423217773438,-0.0353500843048096,A
1526528199.03142,-0.00274974370711981,-0.0177904279228162,0.917194749654915,-0.0465365834534168,-0.142408013343811,0.00725376605987549,A
1526528199.04149,-0.00144809698432991,-0.0148395515545462,0.915969702807243,-0.0443436875939369,-0.108772113919258,0.0835680365562439,A
1526528199.05473,-0.00156112669920165,-0.013415523539098,0.913824661199806,-0.0513107180595398,-0.0517604574561119,0.131821036338806,A
1526528199.062,-0.00341734916834495,-0.0146344278974837,0.90979875090888,-0.0767374411225319,0.0401756651699543,0.111703515052795,A
1526528199.07212,-0.00622787264419086,-0.0175998828790472,0.903378334044708,-0.0721117556095123,0.0920201689004898,0.0646297931671143,A
1526528199.08216,-0.00980443156510968,-0.0202115620202647,0.894967345613831,-0.0105834705755115,0.112602315843105,0.0511392951011658,A
1526528199.09179,-0.0146671083866243,-0.0209709337007538,0.886078947173649,0.0389400906860828,0.174571990966797,0.0430075526237488,A
1526528199.1016,-0.0205869585976823,-0.0190649639239035,0.878107316101434,0.0537543706595898,0.247339397668839,0.0380128026008606,A
1526528199.11186,-0.0256852629520574,-0.0151403822470845,0.871177111673681,0.0675343573093414,0.292019605636597,0.0418071746826172,A
1526528199.1219,-0.0292596214811158,-0.0112709857739563,0.865065759601484,0.0920282453298569,0.331136465072632,0.0436826944351196,A
1526528199.13165,-0.0315706819399836,-0.00901988314768993,0.85966965330314,0.0778135433793068,0.371244519948959,0.0380047559738159,A
1526528199.14189,-0.0334066637180789,-0.008418869349006,0.854860486280773,0.0538002662360668,0.413318902254105,0.059099018573761,A
1526528199.15224,-0.0361072035016989,-0.00899220244971105,0.850367555970098,0.0379442125558853,0.461955189704895,0.0660039782524109,A
1526528199.16212,-0.0401373997384905,-0.00968648520110476,0.845603785634207,0.00644859671592712,0.498706012964249,0.0330832600593567,A
1526528199.17223,-0.045291655568347,-0.00928562992827738,0.840095644669831,0.0235914811491966,0.482047498226166,0.0196529030799866,A
1526528199.18386,-0.0510515980022065,-0.0074694490186827,0.833719693207212,0.0210749953985214,0.483665257692337,-0.00615251064300537,A
1526528199.1924,-0.0566439750102625,-0.00462108198994042,0.827116708574149,0.012927170842886,0.518495976924896,-0.0202454924583435,A
1526528199.20221,-0.0611256527834037,-0.00173844730980961,0.821247539231444,0.018790140748024,0.541764378547668,-0.0199202299118042,A
1526528199.21233,-0.0639694924884684,0.000338696689809041,0.816366421428455,0.00836861878633499,0.561282277107239,-0.0188300609588623,A
1526528199.22261,-0.0648846915093588,0.00135367037950019,0.812155331281828,-0.00379491597414017,0.565089643001556,-0.013122022151947,A
1526528199.2324,-0.0644386509236484,0.00151180314293042,0.808113396552058,-0.0206432417035103,0.564301729202271,-0.00509780645370483,A
1526528199.24242,-0.0635199783113002,0.00128594177118096,0.804385711858268,-0.0268853306770325,0.553577840328217,0.0171017050743103,A
1526528199.25337,-0.0625033293174051,0.00127084321062577,0.801329563095098,-0.0353615060448647,0.531315386295319,0.0513759851455688,A
1526528199.26257,-0.0617229598920583,0.00176318502290482,0.798727439814497,-0.0490798689424992,0.513100445270538,0.0843826532363892,A
1526528199.27272,-0.0615554473659634,0.00264310004092139,0.796308436937273,-0.0501169338822365,0.49806547164917,0.110437750816345,A
1526528199.28292,-0.0622341659796486,0.00365738617788004,0.794095185433459,-0.0618908889591694,0.487742453813553,0.131098806858063,A
1526528199.29274,-0.0637001242641151,0.0047238766480237,0.792094107604004,-0.0665163844823837,0.476861298084259,0.144246697425842,A
1526528199.3029,-0.0659098008579426,0.00592560350513037,0.790148652114693,-0.064616970717907,0.452535063028336,0.147393107414246,A
1526528199.31295,-0.0684200734764075,0.00728873821737612,0.787804063154111,-0.0643560588359833,0.435389250516891,0.136198818683624,A
1526528199.32281,-0.0705691257419052,0.00863536234154918,0.785001343717822,-0.0668822005391121,0.41544982790947,0.123145222663879,A
1526528199.33298,-0.0723345836300011,0.00958759676957516,0.78196476844122,-0.0654271170496941,0.398411899805069,0.120233416557312,A
1526528199.34303,-0.0737508074064876,0.00943743935320778,0.779100719170283,-0.0601846650242805,0.404746741056442,0.107024192810059,A
1526528199.35451,-0.0745558748743454,0.00791730093556993,0.776268087230041,-0.0780118480324745,0.426969349384308,0.0634138584136963,A
1526528199.36396,-0.0753635266210866,0.00512900168027259,0.772659695373913,-0.0842394232749939,0.447176098823547,-0.00448429584503174,A
1526528199.37393,-0.0769250369103306,0.00270083818616502,0.767842612425661,-0.07471664249897,0.431655913591385,-0.0664985179901123,A
1526528199.38781,-0.0792374510960356,0.00254517297332187,0.762290193938584,-0.0369803383946419,0.379238903522491,-0.0786260962486267,A
1526528199.39413,-0.0814279453338494,0.00437854619537632,0.756994192247106,0.0183641910552979,0.336028307676315,-0.067592978477478,A
1526528199.40415,-0.0820562979702694,0.00580830789945703,0.753228842658812,0.0515520945191383,0.31058731675148,-0.0651033520698547,A
1526528199.41425,-0.0801536415348644,0.00438261090926811,0.751603826414946,0.0621990337967873,0.272693157196045,-0.0452733635902405,A
1526528199.42527,-0.0752276373936431,-0.00082360090379228,0.751321118214921,0.0580210611224174,0.214767828583717,-0.0209712982177734,A
1526528199.43426,-0.0684624086357996,-0.0082767443506962,0.751212960814641,0.0813460499048233,0.131036087870598,0.025470495223999,A
1526528199.44434,-0.061459040479477,-0.0159308345011874,0.750389789342571,0.0592305585741997,0.0300598293542862,0.050353467464447,A
1526528199.4544,-0.0567066560157794,-0.0226688538695842,0.748454383675895,0.0538998655974865,-0.0502395443618298,0.0605750679969788,A
1526528199.46408,-0.0549991291914536,-0.0276006073154348,0.745249307483314,0.0516698285937309,-0.113900810480118,0.0783383250236511,A
1526528199.47412,-0.0555506418788535,-0.0310133575256417,0.740741693209449,0.0664054155349731,-0.143755584955215,0.0851660370826721,A
1526528199.48426,-0.0564175528478517,-0.0344261791352587,0.735471511038108,0.0770909115672112,-0.175380080938339,0.0561517477035522,A
1526528199.49419,-0.0563455311603472,-0.0392316462500265,0.729930451727076,0.0886362791061401,-0.193762600421906,0.0217231512069702,A
1526528199.50486,-0.0546904491887512,-0.0456570523762966,0.724494590615279,0.109705716371536,-0.224809885025024,0.00335419178009033,A
1526528199.51489,-0.0518794169718433,-0.0534701608804259,0.718924221038315,0.121728323400021,-0.249657452106476,-0.00132310390472412,A
1526528199.52499,-0.0491877210814507,-0.0617852377643126,0.713217525848112,0.123079195618629,-0.265969574451447,0.000577330589294434,A
1526528199.5355,-0.0482529415907956,-0.0695512840615056,0.707292221390387,0.13701531291008,-0.294684439897537,0.00919276475906372,A
1526528199.54493,-0.04963355715838,-0.0766902715857169,0.701509455876376,0.133360177278519,-0.308975964784622,-0.0135512948036194,A
1526528199.55817,-0.0528436580504589,-0.0832721399710784,0.695887758723863,0.129677668213844,-0.323898583650589,-0.0556526780128479,A
1526528199.56545,-0.0568644657422804,-0.0884837435136867,0.690203727267249,0.136216580867767,-0.32205668091774,-0.0718826651573181,A
1526528199.57546,-0.061449107739084,-0.0921326555207615,0.684373640884593,0.145515829324722,-0.336951702833176,-0.096376359462738,A
1526528199.59007,-0.065635166962812,-0.0939573147931778,0.678452238403575,0.154181212186813,-0.337929248809814,-0.114907145500183,A
1526528199.59479,-0.0688646285725774,-0.0950841689888726,0.672269579133212,0.192919552326202,-0.330933392047882,-0.120569884777069,A
1526528199.60481,-0.0715978868025472,-0.0970987868262595,0.666192215496753,0.226106986403465,-0.318152964115143,-0.150662481784821,A
1526528199.61489,-0.0731573174994665,-0.0998449877916279,0.660822929124152,0.240696802735329,-0.288613498210907,-0.135388433933258,A
1526528199.62557,-0.0742529680444034,-0.103436775062155,0.656870393460821,0.287319749593735,-0.256496429443359,-0.118681311607361,A
1526528199.63562,-0.0751882285900495,-0.107319326512746,0.654445871766606,0.345849186182022,-0.250362932682037,-0.133028209209442,A
1526528199.6457,-0.0759176670378332,-0.110381998733323,0.653882436113455,0.376744270324707,-0.259861946105957,-0.121100842952728,A
1526528199.65674,-0.0762313200494791,-0.111916340709434,0.654983650768563,0.393643707036972,-0.250003784894943,-0.110994577407837,A
1526528199.66596,-0.0760463528410204,-0.111659436498649,0.657453836440739,0.402953565120697,-0.257133722305298,-0.112340569496155,A
1526528199.67586,-0.0756771485455994,-0.109766971536264,0.660808304641505,0.420288473367691,-0.263309478759766,-0.0889413952827454,A
1526528199.6873,-0.0750325828091567,-0.107077569466761,0.665256364134642,0.421670317649841,-0.247055560350418,-0.0674237608909607,A
1526528199.69618,-0.0740230315138282,-0.104420916607198,0.670833720123418,0.409871578216553,-0.226164236664772,-0.0540841817855835,A
1526528199.706,-0.0724558917517412,-0.102218730326788,0.677201561930223,0.423500835895538,-0.209569498896599,-0.0564138889312744,A
1526528199.71745,-0.0699892004876989,-0.100122697906758,0.684534559673829,0.422715991735458,-0.201807916164398,-0.0501992106437683,A
1526528199.72619,-0.0666608529467095,-0.0977694905794421,0.693112185471752,0.43093267083168,-0.195621013641357,-0.0368016958236694,A
1526528199.73662,-0.0625075461577112,-0.0952274429545192,0.702881773568351,0.429783314466476,-0.184851050376892,-0.0245717763900757,A
1526528199.74685,-0.0577909034315331,-0.0926514983239711,0.713759872395432,0.41571107506752,-0.170048907399178,-0.0160374045372009,A
1526528199.75768,-0.0525939084605629,-0.0899028518823083,0.72527418085584,0.405094802379608,-0.160262137651443,-0.014570951461792,A
1526528199.76722,-0.0471950733076431,-0.0868010416524214,0.736853759635101,0.398943901062012,-0.14195941388607,-0.0275028944015503,A
1526528199.77639,-0.0418085732807374,-0.0830235825258613,0.748428727882127,0.39504599571228,-0.117107927799225,-0.0492677092552185,A
1526528199.79129,-0.0365402591705656,-0.0782849483245622,0.760485742675597,0.394818663597107,-0.0869025215506554,-0.0629170536994934,A
1526528199.79717,-0.0313469931565512,-0.0725459914330602,0.773772007040305,0.392892718315125,-0.0509522259235382,-0.0661391019821167,A
1526528199.80647,-0.0260683019816211,-0.0660051587357784,0.788717376623798,0.366798371076584,-0.0222408100962639,-0.0608204007148743,A
1526528199.81784,-0.0203570964919311,-0.0587954548697293,0.804753907609012,0.334819406270981,-0.0135497897863388,-0.0604522824287415,A
1526528199.82667,-0.0143307287704168,-0.0510190243631582,0.820896681171345,0.299879819154739,-0.0112324878573418,-0.0557250380516052,A
1526528199.83851,-0.00837813193627044,-0.042778719162834,0.836609697284111,0.274254769086838,0.00394148379564285,-0.0321083664894104,A
1526528199.84693,-0.00251187856340582,-0.0345031713012325,0.852104117424689,0.257835686206818,0.0361213497817516,-0.00912797451019287,A
1526528199.85819,0.00370934141896398,-0.0265806694787441,0.867866695499873,0.253097385168076,0.0629762932658195,0.0112518072128296,A
1526528199.86683,0.0101316867500857,-0.0195879319620693,0.884163986982871,0.237001776695251,0.0863245725631714,0.0292978882789612,A
1526528199.87695,0.0165289742766227,-0.0136708158858444,0.901294112601417,0.187803775072098,0.125154078006744,0.0214374661445618,A
1526528199.88772,0.0230516165294258,-0.00827697162889515,0.919000122663396,0.118247598409653,0.148263037204742,0.0111594200134277,A
1526528199.89736,0.0300179881871579,-0.00276213357090749,0.936932989850758,0.0852057486772537,0.141830161213875,0.018649697303772,A
1526528199.90765,0.0373720579525678,0.00298744318889804,0.954876880931323,0.0335444025695324,0.139751970767975,0.0376578569412231,A
1526528199.91764,0.0444898647379607,0.0085579000802737,0.972132856866882,-0.0262240469455719,0.151257991790771,0.0462761521339417,A
1526528199.92746,0.0507569680286851,0.0137414746828053,0.988249026298462,-0.0665842741727829,0.160271197557449,0.0579439997673035,A
1526528199.93771,0.0564303583341555,0.0185061105147398,1.0030974821886,-0.113275520503521,0.163814499974251,0.0585705041885376,A
1526528199.94744,0.0613822150907785,0.0228488889703189,1.01659942265737,-0.153628081083298,0.165791243314743,0.0479660034179688,A
1526528199.95851,0.065994253448283,0.0270910855422558,1.02907535775526,-0.199406057596207,0.171588510274887,0.0472464561462402,A
1526528199.96759,0.0705210744458459,0.0309933268562354,1.04071321167693,-0.248727738857269,0.185163170099258,0.0431932210922241,A
1526528199.9776,0.075272390311557,0.0341089566726527,1.05165388945069,-0.273247182369232,0.191130548715591,0.0384279489517212,A
1526528199.98797,0.0804419275189161,0.0360048270828075,1.06195153617064,-0.30065530538559,0.195558205246925,0.0440786480903625,A
1526528199.99792,0.0857480363408834,0.036850412120584,1.07166026086939,-0.331983774900436,0.20911380648613,0.0436078310012817,A
1526528200.00822,0.0906121133823972,0.0372792055487471,1.0810158787848,-0.353593647480011,0.19867804646492,0.0672728419303894,A
1526528200.01886,0.0946539966337233,0.0373963474357287,1.08992671514379,-0.407129734754562,0.192615300416946,0.0675662755966187,A
1526528200.02829,0.0976743703603859,0.0377127226877014,1.09760501539329,-0.458655834197998,0.186949998140335,0.0737953782081604,A
1526528200.03786,0.0995101157955303,0.0382180458899629,1.10334210700536,-0.495116949081421,0.175614133477211,0.0553615093231201,A
1526528200.04751,0.100192607798807,0.0391223002839531,1.10696708797721,-0.544025063514709,0.18216347694397,0.0392522811889648,A
1526528200.05818,0.0999207680253312,0.0400243397810962,1.10861632642769,-0.560535907745361,0.189092025160789,0.015424907207489,A
1526528200.06761,0.0991332638457944,0.0407724610998841,1.10881615277807,-0.567272484302521,0.200551211833954,-0.00363099575042725,A
1526528200.07766,0.0980492677403942,0.0413727243927379,1.10813915968655,-0.570708870887756,0.211999952793121,-0.020318329334259,A
1526528200.08788,0.0967129917567423,0.0419292286484327,1.10696985491271,-0.561046540737152,0.216965764760971,-0.0344938039779663,A
1526528200.0977,0.095511378931123,0.0427308669675414,1.10556489812353,-0.560931622982025,0.213097512722015,-0.0404853224754333,A
1526528200.10767,0.0944524671215625,0.0436949946812541,1.10394672186417,-0.581328392028809,0.213602960109711,-0.0460569858551025,A
1526528200.11806,0.093528383678711,0.0447504639893162,1.10175506574652,-0.594793915748596,0.195538133382797,-0.0394096970558167,A
1526528200.12773,0.0924887399425383,0.0457029172718887,1.09827401488364,-0.59779942035675,0.179140374064445,-0.0217779874801636,A
1526528200.13797,0.0913582248242521,0.0465443063955217,1.09321453021584,-0.591437578201294,0.161624550819397,0.00326567888259888,A
1526528200.14783,0.0899015647234096,0.0471081425423618,1.08648795725729,-0.570897340774536,0.140382960438728,0.0350483059883118,A
1526528200.15795,0.0879894420958483,0.0471439372679569,1.07841643120722,-0.549692392349243,0.133414924144745,0.0596150755882263,A
1526528200.1681,0.0856876201905152,0.0465628656366797,1.06941677280503,-0.538492977619171,0.129019796848297,0.0703396797180176,A
1526528200.178,0.0828150369424867,0.0457308384278525,1.05956944734692,-0.520698487758636,0.115493342280388,0.079271137714386,A
1526528200.18806,0.0790120237927295,0.0449100206186322,1.04904577209444,-0.496132373809814,0.110049955546856,0.0981851816177368,A
1526528200.19833,0.0743850180136458,0.0438993872397269,1.03782936630019,-0.480281233787537,0.110306799411774,0.097104012966156,A
1526528200.20841,0.0691992090255976,0.0426320574247819,1.02561428530947,-0.461521953344345,0.10859814286232,0.0876578688621521,A
1526528200.21951,0.0634169955017366,0.0410448471696118,1.01198126320616,-0.439038276672363,0.0994439721107483,0.0801265835762024,A
1526528200.22861,0.0571954286610101,0.0391481160300493,0.996606084454948,-0.421607136726379,0.0926964655518532,0.0634720325469971,A
1526528200.23912,0.050905686074855,0.0368514366638243,0.979513296681628,-0.389990985393524,0.0920646488666534,0.0496928095817566,A
1526528200.25077,0.0448635982471109,0.0339151294801408,0.961331220470352,-0.352333128452301,0.0968969091773033,0.0347504615783691,A
1526528200.25942,0.0394736804210401,0.0301054291483075,0.94256917848743,-0.303041130304337,0.104853689670563,0.0255016088485718,A
1526528200.26953,0.0350632048558467,0.0252272087595874,0.923334702384701,-0.234385684132576,0.103868335485458,0.022825300693512,A
1526528200.27945,0.0315496393420448,0.0192035282111715,0.903725838356875,-0.162870988249779,0.103583455085754,0.0156449675559998,A
1526528200.29043,0.0284330630223946,0.0122207519564879,0.883834996293711,-0.0964660495519638,0.113294668495655,0.00939357280731201,A
1526528200.30025,0.0248264503044553,0.00506837000158821,0.863644471490554,-0.0281805153936148,0.120073840022087,-0.00532591342926025,A
1526528200.30923,0.0204410913847323,-0.00118498284631778,0.843287559951527,0.0516123473644257,0.116139844059944,-0.00623685121536255,A
1526528200.32339,0.0154488780194445,-0.00620758117577207,0.822904405750586,0.122048981487751,0.117770120501518,-0.0165722966194153,A
1526528200.3292,0.00987518305174069,-0.0102129897314151,0.802489662824033,0.176389530301094,0.119395345449448,-0.0308778882026672,A
1526528200.33941,0.00391934953297701,-0.0136970853179735,0.781946307522169,0.24479928612709,0.117940917611122,-0.0211586356163025,A
1526528200.35026,-0.00222052531410314,-0.0175684239216158,0.761552158068693,0.328407317399979,0.113734357059002,-0.00984609127044678,A
1526528200.3592,-0.00854033814983032,-0.0224821810181699,0.741621016072593,0.408730328083038,0.126720145344734,-0.0079033374786377,A
1526528200.37139,-0.0149212061462325,-0.0278898431860018,0.723060989214809,0.484458297491074,0.140662357211113,-0.0114560127258301,A
1526528200.37916,-0.0211409242098592,-0.0326149970607225,0.706094705589896,0.550547063350677,0.138136625289917,-0.0170515775680542,A
1526528200.38941,-0.0278282556384061,-0.0351985247868304,0.690502477887936,0.613256633281708,0.137477204203606,-0.0037071704864502,A
1526528200.39937,-0.0356832117813394,-0.0357178645132393,0.676025998320234,0.656136274337769,0.14347368478775,-0.0206221342086792,A
1526528200.40962,-0.0444105975703465,-0.0348095077832564,0.662741007836356,0.641796469688416,0.139498665928841,-0.0412182807922363,A
1526528200.42201,-0.0533969746656056,-0.0331638616234486,0.650547896508008,0.638654172420502,0.158919855952263,-0.07198166847229,A
1526528200.4296,-0.0615298976704514,-0.03132646222052,0.639945273823807,0.635450780391693,0.157185733318329,-0.096147358417511,A
1526528200.4397,-0.0676083289722095,-0.0299448322627608,0.631024429069608,0.619879484176636,0.160458818078041,-0.122833788394928,A
1526528200.44983,-0.070819806400068,-0.0290077866137428,0.623687994821234,0.604895293712616,0.156436339020729,-0.157192707061768,A
1526528200.45973,-0.070963341032519,-0.0280739258844206,0.618218025715431,0.573759794235229,0.140157908201218,-0.161036729812622,A
1526528200.47071,-0.0686283145568933,-0.0269983686028585,0.614621982194955,0.524619400501251,0.130261987447739,-0.156480371952057,A
1526528200.47979,-0.0645637019728221,-0.025540606912683,0.611421535837906,0.508192896842957,0.116780892014503,-0.143369674682617,A
1526528200.49,-0.0601719184181587,-0.023762849981195,0.608636930523987,0.472746819257736,0.0851261019706726,-0.131714999675751,A
1526528200.50013,-0.0573580263960741,-0.0217460536288266,0.606602415324591,0.436631262302399,0.107741743326187,-0.0574378371238708,A
0,0,0,0,0,0,0,0,0
1526528201.3952,0.106986478733265,-0.0426490884954196,1.02362107673648,-0.0218312740325928,-0.127490282058716,0.0522924661636353,A
1526528201.40522,0.106760419222147,-0.0432596427555734,1.0259879611837,0.00114694237709045,-0.168047785758972,0.0547928810119629,A
1526528201.41592,0.105124378954639,-0.0441856420754506,1.02828187088438,0.00700321793556213,-0.201397821307182,0.0280395150184631,A
1526528201.42537,0.104025062600192,-0.0456444611435764,1.03104230150602,-0.0259095728397369,-0.222401678562164,0.0261968970298767,A
1526528201.4354,0.104073731871236,-0.047826134368124,1.03474947725189,-0.0476606041193008,-0.251131266355515,-0.00502216815948486,A
1526528201.44558,0.105099259576414,-0.0507250548642813,1.03938569180861,-0.0783427208662033,-0.311201363801956,-0.0326454043388367,A
1526528201.45562,0.106341416562645,-0.0534894914812851,1.04458763005622,-0.119798503816128,-0.381360113620758,-0.0538240075111389,A
1526528201.46568,0.107271768248854,-0.054904843047112,1.04974929984509,-0.14990408718586,-0.46520134806633,-0.0471633076667786,A
1526528201.4756,0.108212973145702,-0.0545479823093463,1.05456211593156,-0.169654607772827,-0.544938445091248,-0.0297431349754333,A
1526528201.48583,0.109719310769279,-0.052958798869565,1.05881626945082,-0.203446745872498,-0.61282479763031,-0.00238656997680664,A
1526528201.49572,0.111282915607604,-0.0512302478005284,1.06183482191481,-0.228842854499817,-0.641021072864532,0.0441615581512451,A
1526528201.50575,0.111374979095526,-0.0502931514720723,1.06301845141293,-0.244183033704758,-0.643365800380707,0.102502465248108,A
1526528201.51593,0.108749237385153,-0.0504360782641908,1.06217909931562,-0.224714741110802,-0.632232308387756,0.158111691474915,A
1526528201.52594,0.1037265731073,-0.051093379911043,1.05969762192525,-0.204479768872261,-0.597625732421875,0.174174427986145,A
1526528201.53607,0.0980173721729072,-0.0511009545791901,1.05566859389365,-0.196823328733444,-0.549430787563324,0.16008448600769,A
1526528201.54599,0.0924561802916278,-0.050371722771494,1.05021048709454,-0.157057270407677,-0.492794275283813,0.133992373943329,A
1526528201.55612,0.0870636857371767,-0.0500015724211189,1.04384400373325,-0.115317955613136,-0.390617936849594,0.0816066861152649,A
1526528201.56606,0.0821125626065333,-0.0502408347543152,1.03821306843334,-0.0847854763269424,-0.266482532024384,0.0398677587509155,A
1526528201.57632,0.0785241791454834,-0.0507859838140748,1.03424818757501,-0.0411261767148972,-0.170911848545074,0.0376711487770081,A
1526528201.58733,0.0767648171720334,-0.0518929244940373,1.0321892791899,-0.00258108228445053,-0.0713245943188667,0.0555731058120728,A
1526528201.59637,0.075685900329774,-0.0545181163960974,1.03192693267614,0.00331032276153564,0.0102061480283737,0.0446516871452332,A
1526528201.60642,0.0741002283267656,-0.0570225870064022,1.03148723601089,-0.0388626679778099,0.0597533024847507,0.0309895873069763,A
1526528201.61656,0.0704493249838033,-0.0569713752217243,1.02848793522132,-0.0467783212661743,0.0634970590472221,0.0586604475975037,A
1526528201.62638,0.0633255126062546,-0.0541645104062482,1.02210949070548,-0.0632056519389153,0.11729446798563,0.0229297280311584,A
1526528201.63672,0.0534504202424116,-0.0498668025466729,1.01373291310448,-0.0809464529156685,0.211979418992996,-0.0497885942459106,A
1526528201.64663,0.0432476070173082,-0.0456218712150564,1.00482583369987,-0.0978918969631195,0.289354890584946,-0.130011081695557,A
1526528201.65651,0.0343861170960842,-0.0421538854690476,0.996466429646247,-0.076981857419014,0.357944041490555,-0.200972378253937,A
1526528201.66675,0.0280742745961472,-0.0388678046148569,0.989760041305825,-0.0396765843033791,0.393484503030777,-0.223423779010773,A
1526528201.6768,0.0249803555121312,-0.0352448819865227,0.984603823288482,-0.0282886624336243,0.414271086454391,-0.208223462104797,A
1526528201.68693,0.0251360151548443,-0.031671685571341,0.979545353671185,-0.0118151009082794,0.413890242576599,-0.183571755886078,A
1526528201.69701,0.0276266242546705,-0.0290038130863611,0.973569082994372,0.00397420115768909,0.422294199466705,-0.139519691467285,A
1526528201.70705,0.0310553392556122,-0.0277158494638628,0.966381261244545,-0.00943197682499886,0.457105219364166,-0.101345181465149,A
1526528201.71789,0.0336166049359615,-0.0276540875910935,0.958461709211879,-0.0026831179857254,0.491392403841019,-0.049378514289856,A
1526528201.72718,0.0336849061891551,-0.0283704817936565,0.950179240106599,-0.012363713234663,0.541701674461365,-0.0403981804847717,A
1526528201.7372,0.0313016774402668,-0.0284958190088872,0.941897092900078,-0.00642729178071022,0.556819915771484,-0.05500328540802,A
1526528201.7473,0.027319093688005,-0.0268692096614108,0.934124873613935,0.0238568857312202,0.550847053527832,-0.0629745721817017,A
1526528201.75746,0.0230587529088156,-0.0237697805761708,0.927540505749406,0.0403042957186699,0.565236985683441,-0.0772846937179565,A
1526528201.76746,0.0197291382640524,-0.0204440527499646,0.922296714466347,0.0405179634690285,0.583179831504822,-0.0880347490310669,A
1526528201.77759,0.0176744927999511,-0.0173427213055245,0.918122847885401,0.0432879477739334,0.582984685897827,-0.0865339636802673,A
1526528201.78772,0.0164464484596921,-0.0138946254880403,0.914764023469239,0.0318957269191742,0.568671107292175,-0.0483884811401367,A
1526528201.79778,0.0150524971184352,-0.00986982404888887,0.911901338120182,0.00817268155515194,0.555178582668304,-0.015771746635437,A
1526528201.80788,0.0124117871994214,-0.00540841005131038,0.909349065300196,-0.0168363358825445,0.531533122062683,-0.00680553913116455,A
1526528201.81802,0.00804584953968976,-0.00014659818560114,0.907124971171847,-0.0470777451992035,0.501562356948853,0.00939756631851196,A
1526528201.82788,0.00208062947515199,0.0060133934473008,0.905187931474041,-0.0739189684391022,0.47184893488884,0.0277965068817139,A
1526528201.83796,-0.0039865366354234,0.0125309807160937,0.903497246897767,-0.0907403528690338,0.435687392950058,0.0223897099494934,A
1526528201.84823,-0.00824553834013813,0.01838566784021,0.901903477483949,-0.105708584189415,0.416028678417206,0.02881920337677,A
1526528201.85828,-0.01024267517255,0.0228261279717523,0.900159084569016,-0.126478925347328,0.407620280981064,0.0177992582321167,A
1526528201.86853,-0.0109045634551659,0.0260090513152485,0.898041078154852,-0.131707981228828,0.399358183145523,0.0285330414772034,A
1526528201.87825,-0.0117413103874441,0.0286425152263257,0.89582927385781,-0.126722022891045,0.396375417709351,0.0563446879386902,A
1526528201.88833,-0.0137614361763716,0.0314759300857768,0.893584335283433,-0.128503501415253,0.397300183773041,0.0907949209213257,A
1526528201.89852,-0.0169390221028736,0.0341648842618672,0.891092950988167,-0.116509780287743,0.398812770843506,0.104039907455444,A
1526528201.9084,-0.0204668839392874,0.0358690941563378,0.88811895082906,-0.107431620359421,0.390246778726578,0.0918141007423401,A
1526528201.91855,-0.0235419587655486,0.0357130468415089,0.884686507354857,-0.0937237590551376,0.381606936454773,0.0871286392211914,A
1526528201.92854,-0.0258933247132417,0.0330592003062568,0.881087838714454,-0.0769526958465576,0.374056607484818,0.073138952255249,A
1526528201.93956,-0.0275564250530088,0.0281253633108213,0.87702366348407,-0.0716095715761185,0.372832953929901,0.0391114950180054,A
1526528201.94872,-0.0283841584004459,0.0225406645234535,0.87209880306569,-0.0479360669851303,0.363679498434067,-1.58548355102539e-05,A
1526528201.9588,-0.0281562788814933,0.0170528929674848,0.867057728309277,0.00735073536634445,0.344200491905212,-0.0112533569335938,A
1526528201.96893,-0.0266526643745757,0.0110115159812419,0.862971349612215,0.0404113195836544,0.334695994853973,-0.0293158888816833,A
1526528201.97876,-0.0243364663970417,0.004139509490749,0.860346030515267,0.0565909370779991,0.319431841373444,-0.0290522575378418,A
1526528201.98917,-0.0217963157910522,-0.00308640544036261,0.858855516387619,0.0645190924406052,0.27764481306076,-0.016569197177887,A
1526528201.99912,-0.0191456142634572,-0.00922800930514505,0.857568404592064,0.0532927997410297,0.215228915214539,-0.0142791867256165,A
1526528202.00905,-0.0171524186024937,-0.013577325649398,0.855458715908054,0.0601492673158646,0.159671381115913,0.00986206531524658,A
1526528202.01946,-0.0161710788563859,-0.0167996099143747,0.852423333779112,0.0719999969005585,0.125916630029678,0.0223416686058044,A
1526528202.02912,-0.0160075344434557,-0.0199260852187481,0.848600752979505,0.0754824355244637,0.100314490497112,0.0268187522888184,A
1526528202.03916,-0.0158955269559154,-0.0239100175186197,0.844442749521156,0.096410945057869,0.0555905513465405,0.0333708524703979,A
1526528202.04965,-0.0153720073471572,-0.0290392736769226,0.840378441505057,0.100951470434666,0.00117721036076546,0.0199070572853088,A
1526528202.0594,-0.0141716666635035,-0.0346992348908413,0.836356977823215,0.108614563941956,-0.0548796504735947,0.0180202126502991,A
1526528202.06957,-0.0124830016253596,-0.0399778703857014,0.83195670909392,0.1154695302248,-0.103962585330009,0.0426869988441467,A
1526528202.07966,-0.0111276332115854,-0.0450081864788869,0.826522556669976,0.12329874932766,-0.133341372013092,0.0578548908233643,A
1526528202.08954,-0.0105700551755447,-0.0500144328367097,0.820131679033823,0.143430173397064,-0.158880308270454,0.0791838765144348,A
1526528202.09954,-0.0109606006638901,-0.0548535443409488,0.812371334670686,0.172839641571045,-0.169312730431557,0.105628967285156,A
1526528202.10968,-0.0120673608741314,-0.0601341266856934,0.803624793441504,0.200949057936668,-0.189675524830818,0.0760312080383301,A
1526528202.11979,-0.0129026822209602,-0.0655546945279589,0.794308297594628,0.245403304696083,-0.201387271285057,0.0565000772476196,A
1526528202.12976,-0.0128110646326974,-0.0712937044435443,0.785697756945945,0.25943648815155,-0.219075739383698,0.0331901907920837,A
1526528202.13982,-0.0119530727681005,-0.0768851834739576,0.778045832781337,0.280105948448181,-0.217861711978912,0.0211139917373657,A
1526528202.15033,-0.010918556907828,-0.0817455362555687,0.77163577338153,0.264955967664719,-0.240529030561447,0.014866054058075,A
1526528202.16032,-0.0106636521493964,-0.08542486493033,0.765591244489167,0.246540695428848,-0.268868982791901,0.0223588943481445,A
1526528202.17005,-0.012333374787328,-0.0874937491676519,0.75968032241793,0.247622191905975,-0.291941493749619,0.0322929620742798,A
1526528202.18017,-0.0156320718147138,-0.0875464264063949,0.753809693851585,0.235282868146896,-0.315980792045593,0.0218511819839478,A
1526528202.19029,-0.0192428935918818,-0.0866481056265546,0.74780678373006,0.251072585582733,-0.338920086622238,0.0088355541229248,A
1526528202.20024,-0.02146761048349,-0.0868015484199605,0.741968239425111,0.271049439907074,-0.3402478992939,-0.0162472724914551,A
1526528202.21031,-0.0216369489400066,-0.0887803349829803,0.736772567635295,0.272221446037292,-0.334696471691132,-0.0317289233207703,A
1526528202.2205,-0.0204274985577816,-0.0916351033464202,0.732451246349577,0.283096730709076,-0.33322137594223,-0.0361568331718445,A
1526528202.23047,-0.0187856279001212,-0.0939488424884461,0.729259607272117,0.297449231147766,-0.342345863580704,-0.0235065221786499,A
1526528202.2405,-0.0176606370515015,-0.0952436245904165,0.727093188336364,0.304505944252014,-0.355979204177856,-0.028704822063446,A
1526528202.2507,-0.0171721748887832,-0.0953251148375425,0.726067423511304,0.313205420970917,-0.354259788990021,-0.0243248343467712,A
1526528202.26064,-0.0169061949963178,-0.0944771757849704,0.72597099898856,0.317153483629227,-0.365454852581024,-0.0174192786216736,A
1526528202.27056,-0.016956679867281,-0.0930356965505702,0.726325267272115,0.317175507545471,-0.36437064409256,-0.0326508283615112,A
1526528202.2807,-0.0169498911403936,-0.0909316476492986,0.727157787632582,0.320437401533127,-0.35885751247406,-0.0277882814407349,A
1526528202.2909,-0.0166807101442692,-0.0887626763205126,0.728686563975311,0.312970459461212,-0.33380913734436,-0.0364850759506226,A
1526528202.30091,-0.015798259788846,-0.0866751284150296,0.730940574608694,0.319433987140656,-0.313739478588104,-0.0491510629653931,A
1526528202.31103,-0.0136949030879691,-0.0844786931134304,0.733950788563443,0.334278583526611,-0.301861763000488,-0.0550817847251892,A
1526528202.32132,-0.0104635964065447,-0.0820494792005498,0.737728203888671,0.345541715621948,-0.287005066871643,-0.0597389340400696,A
1526528202.3309,-0.00666077949633981,-0.0793190786376518,0.742419068295247,0.348436653614044,-0.263729929924011,-0.0457839965820312,A
1526528202.34113,-0.00303332922247308,-0.0762480295133502,0.748371182607587,0.355060040950775,-0.234178930521011,-0.0249895453453064,A
1526528202.35182,-4.93415479051518e-05,-0.0729391520207984,0.755545669280971,0.35898169875145,-0.198515355587006,-0.0127449631690979,A
1526528202.36126,0.00256296994253149,-0.069472712967233,0.763672985523575,0.359046012163162,-0.166737407445908,-0.021077036857605,A
1526528202.37131,0.00512435712141804,-0.0657259116140123,0.772380146651894,0.370344489812851,-0.14641284942627,-0.0388239026069641,A
1526528202.38169,0.00760286289387881,-0.0614870206125659,0.781641256789737,0.373103111982346,-0.116425700485706,-0.0491445064544678,A
1526528202.3921,0.0100233473004495,-0.0566826862643433,0.791555117990765,0.366396725177765,-0.0848200619220734,-0.061684250831604,A
1526528202.40156,0.0129999001134055,-0.0511525826486756,0.802361743761716,0.361681789159775,-0.0684642642736435,-0.0621986985206604,A
1526528202.41156,0.0172070802714637,-0.0452411717961786,0.814361404675063,0.341774374246597,-0.0547472238540649,-0.0527915954589844,A
1526528202.42164,0.0225729414070126,-0.0394441030306753,0.827639944159456,0.300200432538986,-0.0437063351273537,-0.0346016883850098,A
1526528202.43162,0.0283537978535803,-0.0337404386629615,0.842017914182254,0.259141713380814,-0.0415923111140728,0.0161190032958984,A
1526528202.44176,0.0336279576359874,-0.0282528903830366,0.8570291061398,0.219504594802856,-0.0376332849264145,0.070492684841156,A
1526528202.45182,0.0371793894208389,-0.0235832803125246,0.871928005236725,0.187799841165543,-0.00902421027421951,0.0864639282226562,A
1526528202.4618,0.0386105658364772,-0.0196245246918763,0.886671522218946,0.175044760107994,0.0253749042749405,0.0681388378143311,A
1526528202.47176,0.0391018083819348,-0.0157304942512388,0.900974281956602,0.166296288371086,0.0334797501564026,0.0540283918380737,A
1526528202.48212,0.0400949415449342,-0.0120295499234594,0.914499647559776,0.177341192960739,0.0434211790561676,0.0161375403404236,A
1526528202.49189,0.0426834183347922,-0.00870442396450676,0.927489439862267,0.167978733778,0.061577670276165,-0.0378596782684326,A
1526528202.5024,0.0470443084235824,-0.00516549038114208,0.940570244210115,0.160859405994415,0.0724407359957695,-0.049688458442688,A
1526528202.51218,0.052582598847557,-0.000922279070163877,0.954174912844002,0.144417360424995,0.0863579958677292,-0.0255372524261475,A
1526528202.52236,0.0585117357548378,0.00387162603483402,0.968520884885403,0.117745839059353,0.096446692943573,0.0144097208976746,A
1526528202.53249,0.0643285888718285,0.00817115386920639,0.983233042398938,0.0858186185359955,0.11359404027462,0.0489389896392822,A
1526528202.54225,0.0702497325566426,0.0111180086552839,0.997567834499925,0.0641507506370544,0.115671001374722,0.0551958680152893,A
1526528202.55297,0.0764469905206632,0.0127399252861443,1.01078567927566,0.0457039624452591,0.120710775256157,0.0417066812515259,A
1526528202.56253,0.0825411057349044,0.0139048735681993,1.02270303658259,0.0469398349523544,0.136447757482529,0.0389490127563477,A
1526528202.57253,0.0878134449859799,0.0151460363360287,1.03410238416707,0.043596051633358,0.16730609536171,0.0529326200485229,A
1526528202.58311,0.0920842214042559,0.0165568969379232,1.04551951702039,0.00841552019119263,0.203049063682556,0.0288603901863098,A
1526528202.5927,0.095740410000512,0.0184000543809698,1.05675495729061,-0.0204742699861526,0.220974698662758,-0.00879168510437012,A
1526528202.60268,0.0997228338745227,0.0211480162053704,1.06799168908136,-0.0510124191641808,0.215772300958633,-0.0229214429855347,A
1526528202.61275,0.104574768345981,0.0245828824134871,1.07929316961754,-0.108121648430824,0.211363241076469,-0.0239519476890564,A
1526528202.62293,0.110038376781421,0.0278546564580036,1.09028339847332,-0.164339274168015,0.207477509975433,-0.0147497057914734,A
1526528202.63298,0.115893953987613,0.0305040900578859,1.1007046800521,-0.214427322149277,0.20444954931736,0.0190443396568298,A
1526528202.64293,0.121845596589979,0.0322351824229764,1.11009904503737,-0.252508401870728,0.193453967571259,0.0489856004714966,A
1526528202.65358,0.127344608383076,0.0331719417901572,1.11827406727295,-0.283836960792542,0.177391931414604,0.0735560655593872,A
1526528202.66309,0.131929077012954,0.0337285399820869,1.12526526632326,-0.338670969009399,0.185760721564293,0.082008957862854,A
1526528202.67316,0.135654462685293,0.0344301172753371,1.13123087689884,-0.379467129707336,0.175261944532394,0.0720739364624023,A
1526528202.68317,0.138824884070747,0.0355866366267494,1.13616120375858,-0.412187039852142,0.165049955248833,0.0659393668174744,A
1526528202.69324,0.141758184891177,0.0366892240777057,1.13986695519165,-0.442778766155243,0.172484219074249,0.0507500171661377,A
1526528202.7033,0.144764232216031,0.0369701856601581,1.14235038757299,-0.465678513050079,0.197346895933151,0.0197017788887024,A
1526528202.71323,0.147436722837535,0.0364499836521193,1.14364968650986,-0.480286419391632,0.20822536945343,-0.0140390992164612,A
1526528202.72339,0.149211947981354,0.036062524975199,1.1439909946148,-0.48247030377388,0.207304090261459,-0.0137991309165955,A
1526528202.73346,0.149952153828341,0.0362458266058073,1.14373717230545,-0.5050208568573,0.207075297832489,-0.00660693645477295,A
1526528202.7435,0.149807456686992,0.0366305302026476,1.14268720746414,-0.528572678565979,0.191270172595978,-0.0188672542572021,A
1526528202.75408,0.149137013777399,0.0369034207484149,1.14074924911009,-0.542847037315369,0.174742937088013,-0.0280852913856506,A
1526528202.76387,0.148266063771552,0.0369186305993123,1.13786182075661,-0.56598824262619,0.176329791545868,-0.0239591002464294,A
1526528202.77368,0.147265625822376,0.0364702902682826,1.133824629195,-0.568023085594177,0.169686704874039,-0.0237956047058105,A
1526528202.78455,0.146484748615102,0.0356260987891562,1.12837290592425,-0.56316614151001,0.16959074139595,-0.0343629717826843,A
1526528202.79394,0.146250895508349,0.0345807306709755,1.12183798688828,-0.550367116928101,0.173535630106926,-0.0409606695175171,A
1526528202.80387,0.146136069351646,0.0334553923469606,1.11484434286376,-0.527859210968018,0.162767380475998,-0.0318424105644226,A
1526528202.81411,0.145765891012488,0.0322118022399298,1.1078479804636,-0.518038630485535,0.163675963878632,-0.0183357000350952,A
1526528202.8243,0.144967498230551,0.030895685125143,1.10081109470161,-0.521344423294067,0.152167618274689,-0.00917637348175049,A
1526528202.83415,0.143245480394114,0.0296270670558534,1.09321698906968,-0.518517434597015,0.135076224803925,-0.00310808420181274,A
1526528202.84401,0.140370982774744,0.028740345714275,1.08439399874202,-0.507681012153625,0.108921326696873,0.00196230411529541,A
1526528202.85431,0.136872086598805,0.0281727884330811,1.07388823462358,-0.496666252613068,0.0969556868076324,0.00731384754180908,A
1526528202.86488,0.133305622494719,0.0271760343575269,1.06186006907349,-0.486988067626953,0.0974394157528877,0.00188565254211426,A
1526528202.87457,0.129729731145652,0.0254302445671691,1.04855503913243,-0.46376645565033,0.0901095122098923,-0.000743389129638672,A
1526528202.88853,0.125779460789781,0.0232978039725006,1.03432228505677,-0.437685132026672,0.100764572620392,0.0151311159133911,A
1526528202.89468,0.120754356972939,0.0210663146418678,1.01955312863161,-0.415051072835922,0.107078552246094,0.0212301015853882,A
1526528202.90454,0.11422442586293,0.01915468908327,1.0041588050444,-0.378237515687943,0.106128618121147,0.0305479168891907,A
1526528202.91452,0.106296427476871,0.0177365135272764,0.987928037792279,-0.34901487827301,0.10699950158596,0.0325753092765808,A
1526528202.92472,0.097719442054187,0.0165574544526119,0.970615080616887,-0.322053194046021,0.100418999791145,0.0218719840049744,A
1526528202.93462,0.08904984304802,0.0151695044489951,0.952095642595692,-0.275079190731049,0.0950944572687149,0.0171175599098206,A
1526528202.94469,0.0805440584970847,0.0131322266107153,0.932394402723382,-0.223821640014648,0.101251356303692,0.0136704444885254,A
1526528202.95518,0.0724742355376262,0.0105445946860622,0.911991318445846,-0.167026534676552,0.118118859827518,0.00427746772766113,A
1526528202.9646,0.0652941305699515,0.00759200563126436,0.891490215609585,-0.0943291187286377,0.134514540433884,-0.00138145685195923,A
1526528202.97507,0.0583023168090135,0.00430803126887905,0.871252047878953,-0.0109207294881344,0.154759675264359,-0.00877320766448975,A
1526528202.98506,0.0509763770434725,0.00121848367033839,0.851725938172731,0.0718942433595657,0.168958351016045,0.00237762928009033,A
1526528202.99503,0.0427636699013985,-0.00131507039968523,0.833135682789403,0.156208753585815,0.174786612391472,0.0169376730918884,A
1526528203.0059,0.0338766872250418,-0.00308116663428256,0.815422244765807,0.243672072887421,0.171769306063652,0.0162214040756226,A
1526528203.01521,0.0256056624345697,-0.00431153282829059,0.798532489159907,0.323899924755096,0.158438727259636,0.00112771987915039,A
1526528203.02525,0.0184445432753237,-0.00532817144989956,0.782246994435782,0.38884437084198,0.152386695146561,-0.00406002998352051,A
1526528203.03511,0.0121459358331311,-0.00669052661893971,0.766329845859278,0.467316299676895,0.168648272752762,-0.0345352292060852,A
1526528203.04549,0.00658778613394831,-0.00832429454567505,0.751754738586122,0.506657123565674,0.149451673030853,-0.0530501008033752,A
1526528203.05547,0.00123437050012374,-0.00952399617311657,0.738603923809859,0.546937704086304,0.148480907082558,-0.0686954259872437,A
1526528203.06561,-0.005408443450475,-0.00956394025357722,0.726537559575176,0.603079676628113,0.149356499314308,-0.05488520860672,A
0,0,0,0,0,0,0,0,0
1526528203.94068,0.0822976431242042,-0.0460596559565553,1.07550779400099,-0.0164437592029572,-0.0685500800609589,-0.0292370319366455,A
1526528203.9515,0.0842281163114763,-0.0436695767544245,1.07506388593668,-0.0144835412502289,-0.0827944949269295,0.00960403680801392,A
1526528203.96083,0.0837772315753722,-0.0421789807009427,1.07465659203669,0.0083141028881073,-0.0840823724865913,0.0162821412086487,A
1526528203.9713,0.0822702516568129,-0.0417725071258425,1.07463836042497,-0.0213147699832916,-0.0629700794816017,0.000661671161651611,A
1526528203.98109,0.0810809500157281,-0.0417864000107338,1.07492310946616,-0.0740855038166046,-0.0603594481945038,0.0296581387519836,A
1526528203.991,0.0799419548064105,-0.0418713747238855,1.07516478114482,-0.0439744666218758,-0.0784497112035751,0.0269537568092346,A
1526528204.00095,0.0787006962004051,-0.0420977337044076,1.07511540994564,-0.0201086550951004,-0.0960861593484879,0.0206796526908875,A
1526528204.01118,0.0774320475786304,-0.0422989558354303,1.07481426654224,-0.0277707278728485,-0.0817455723881721,0.0193357467651367,A
1526528204.02149,0.076555645930158,-0.042429663127463,1.07442803540727,-0.0390890538692474,-0.0847448110580444,0.0127599835395813,A
1526528204.03257,0.0757889716345286,-0.0424727710439055,1.07392452503699,-0.0400951728224754,-0.0952554121613503,0.0110311508178711,A
1526528204.04152,0.0747881559911841,-0.0424185931055448,1.07336434523814,-0.0441336631774902,-0.103593617677689,0.0178988575935364,A
1526528204.05183,0.0733126174332659,-0.0422274169995937,1.07253299690177,-0.0411839857697487,-0.117074489593506,0.0248671770095825,A
1526528204.06151,0.0717810751252102,-0.0420510168876287,1.07108140228476,-0.0423286557197571,-0.115677535533905,0.0226356387138367,A
1526528204.07159,0.0711913484246742,-0.042120133360154,1.06961778922616,-0.0633624494075775,-0.133797734975815,0.0324099063873291,A
1526528204.08164,0.0709923557112583,-0.0428667682543356,1.06804023439469,-0.0607509985566139,-0.158561035990715,0.0232371091842651,A
1526528204.09157,0.0708781147683986,-0.0441707222573849,1.0662259619056,-0.0658058673143387,-0.145200058817863,0.00258928537368774,A
1526528204.10169,0.0705511737207166,-0.0451240821670743,1.0641436341624,-0.0779282301664352,-0.170612305402756,-0.00222134590148926,A
1526528204.11178,0.0697099870705998,-0.0448411557054574,1.06153609075988,-0.0761447995901108,-0.174663156270981,0.00132924318313599,A
1526528204.12183,0.068312087893868,-0.0433267057636715,1.05847716667598,-0.0703006237745285,-0.174859166145325,0.00274330377578735,A
1526528204.13177,0.0666015096321712,-0.0412960365141855,1.05530636907956,-0.0670448541641235,-0.166757315397263,0.0016777515411377,A
1526528204.14188,0.0644365363274869,-0.0393590211903692,1.05224991470019,-0.0711169838905334,-0.146709695458412,-0.00185638666152954,A
1526528204.15415,0.0618286271843536,-0.0377390123391165,1.04952391133339,-0.0616384372115135,-0.12771113216877,-0.00365906953811646,A
1526528204.1621,0.058668225546044,-0.0365280395725623,1.04739218043249,-0.0466173142194748,-0.111898332834244,-0.00334769487380981,A
1526528204.17211,0.0550028403535127,-0.0358265301408641,1.04590490800828,-0.0441823862493038,-0.0902927443385124,-0.0108047127723694,A
1526528204.18214,0.0512705654968247,-0.0354212243251709,1.04477119587556,-0.0491407662630081,-0.0787487775087357,-0.0351893901824951,A
1526528204.1923,0.0476238100026855,-0.0345909427363208,1.04327622005746,-0.0382542125880718,-0.0890426635742188,-0.0713877081871033,A
1526528204.20215,0.0443081091152715,-0.032186131893977,1.04068667857588,-0.0214282646775246,-0.110183507204056,-0.0792729258537292,A
1526528204.21232,0.0409424518620502,-0.0280059167309017,1.03716820901384,0.00299983099102974,-0.119158260524273,-0.0571990609169006,A
1526528204.22239,0.0374653760296987,-0.0229409439393227,1.03335012774485,0.0058424286544323,-0.105153292417526,-0.0274844765663147,A
1526528204.23274,0.0339578455673032,-0.0182022147854747,1.0298267482153,0.0118459314107895,-0.0828069224953651,0.000890612602233887,A
1526528204.24269,0.0315368691213988,-0.0148760977037468,1.02695283625275,0.016018234193325,-0.0684338957071304,0.0196253061294556,A
1526528204.25607,0.0307148905399805,-0.0137855063212923,1.02507656759001,0.0111019387841225,-0.0498263314366341,0.0249765515327454,A
1526528204.26251,0.0308001571219784,-0.0147284713232753,1.02438600426151,0.0130312964320183,-0.041018832474947,0.0303316116333008,A
1526528204.27262,0.0309111773185893,-0.0164219424631696,1.02449854155503,0.0133331418037415,-0.0396603420376778,0.0375039577484131,A
1526528204.28392,0.030431107068289,-0.0171271487085195,1.02405452743755,0.00497844256460667,-0.0493070967495441,0.0388954281806946,A
1526528204.29283,0.0292016511395122,-0.0158716500422304,1.02169586606124,0.0037804190069437,-0.0639972016215324,0.0332459807395935,A
1526528204.30303,0.0269825907500611,-0.0130692122907128,1.01762026009819,0.0138707645237446,-0.0542065352201462,0.0297325253486633,A
1526528204.31305,0.0241977398598192,-0.0100186831654888,1.01279289108658,0.00702531822025776,-0.0188228376209736,0.0252003073692322,A
1526528204.32307,0.0217014121939846,-0.00782788902232042,1.00791546321673,0.00639238581061363,0.017852732911706,0.0125207901000977,A
1526528204.33299,0.0201982394125271,-0.00697122674263742,1.00339186966269,0.0312410034239292,0.0343801490962505,0.00265562534332275,A
1526528204.3432,0.0202959587430516,-0.00754843690086594,0.999862131164297,0.0523531064391136,0.0451860092580318,-0.00143986940383911,A
1526528204.35371,0.021406291069786,-0.00909125687359193,0.997825045942299,0.0651440769433975,0.0581238344311714,0.0121044516563416,A
1526528204.36325,0.023200066934383,-0.0108054848636474,0.996872450781739,0.0595212653279305,0.0683420598506927,0.034645676612854,A
1526528204.37326,0.0254295541340541,-0.011909975382509,0.995812799685843,0.0458487942814827,0.0596387684345245,0.0490289926528931,A
1526528204.38348,0.027781913049697,-0.0122684917956223,0.993596816968037,0.0406594201922417,0.0460966825485229,0.0621304512023926,A
1526528204.39366,0.0297850396593302,-0.0124156263860975,0.989896998983314,0.0293952450156212,0.0489097684621811,0.0609875917434692,A
1526528204.40449,0.0307004424194142,-0.0124806568504566,0.984490784981556,0.0148847736418247,0.0606245249509811,0.0523989200592041,A
1526528204.41347,0.0298393727838728,-0.0119672771757932,0.977685053005373,0.0355511009693146,0.0758626013994217,0.0578176379203796,A
1526528204.42355,0.0273328242920969,-0.010363580059579,0.97050759892007,0.060242235660553,0.0946781113743782,0.0738831162452698,A
1526528204.43362,0.0236049971613299,-0.00809033740008928,0.964016481214165,0.0725130811333656,0.130978360772133,0.0743041634559631,A
1526528204.44361,0.0193805025496999,-0.00561021150566874,0.95848404216934,0.0549923554062843,0.156483933329582,0.034891664981842,A
1526528204.4547,0.0158903752618749,-0.00276391596877169,0.953595253927457,0.0524239540100098,0.164106205105782,0.0053478479385376,A
1526528204.46391,0.0134866673629017,6.51992705604587e-05,0.949267643899969,0.0548425987362862,0.170811042189598,-0.0149377584457397,A
1526528204.47389,0.0120134357435151,0.00247504489733016,0.945536357151267,0.0578111074864864,0.181140199303627,-0.023650050163269,A
1526528204.48506,0.0114397517761003,0.00421940061468301,0.942422530338011,0.0488480776548386,0.203850120306015,-0.0184764266014099,A
1526528204.49407,0.0114632770211533,0.00517573992400467,0.939836450284762,0.0321467444300652,0.224475026130676,-0.0127896666526794,A
1526528204.50462,0.0114529478562764,0.00554370527683573,0.937246310563086,0.0227119065821171,0.21918198466301,-0.0120896100997925,A
1526528204.51417,0.0108496108395755,0.00614086834408982,0.934051637272643,0.0116727789863944,0.216071248054504,-0.0137190818786621,A
1526528204.52421,0.00965284419727334,0.00765142104689791,0.930618801667856,0.0153262251988053,0.213889136910439,-0.00154072046279907,A
1526528204.53426,0.00824369465463086,0.00972057563531666,0.927593469489212,0.0195888187736273,0.22244319319725,0.00773125886917114,A
1526528204.54437,0.00696411462796189,0.0117070763381152,0.925348309716689,0.024301677942276,0.239001736044884,0.00892513990402222,A
1526528204.55448,0.00611590906713517,0.0134396883033022,0.923858626000327,0.020724892616272,0.242916211485863,0.0130135416984558,A
1526528204.56458,0.0055795748677321,0.0149468926084369,0.922867475455422,0.0147305252030492,0.238365530967712,0.016245424747467,A
1526528204.57458,0.00520688736882332,0.0163658616274816,0.922068753651003,-0.00259691337123513,0.239448621869087,0.0186055898666382,A
1526528204.58483,0.00480616366808447,0.0178377528956184,0.920892322591161,-0.0159290377050638,0.239684343338013,0.0175142884254456,A
1526528204.5944,0.0045504833280511,0.019201601926754,0.919165510020813,-0.0142084416002035,0.241719335317612,0.00780093669891357,A
1526528204.60452,0.00444465621268823,0.0203252336995449,0.91727098362426,-0.0253024883568287,0.249114125967026,0.00507837533950806,A
1526528204.6145,0.00419623827640253,0.0211057898229488,0.91548307329162,-0.0315237827599049,0.260667204856873,0.0173618793487549,A
1526528204.6249,0.00386624467301284,0.02149693146141,0.914278390514841,-0.0146838240325451,0.255580365657806,0.0367029905319214,A
1526528204.63457,0.003617177408106,0.0215690656431105,0.913908522538436,-0.0137329054996371,0.249564215540886,0.0577595233917236,A
1526528204.64472,0.00366780749198547,0.0215034717917832,0.914029888556505,-0.015141561627388,0.237581521272659,0.0746674537658691,A
1526528204.65484,0.00379363124075575,0.02157822668982,0.914200292700361,-0.0114984270185232,0.21795716881752,0.0918468236923218,A
1526528204.66484,0.00366456747213062,0.0217966449647182,0.914238416657814,-0.00418248772621155,0.20392382144928,0.105392336845398,A
1526528204.6749,0.00319008665141371,0.022075691403069,0.914272954442005,-0.00294516328722239,0.195078045129776,0.11301726102829,A
1526528204.68489,0.00241001270500038,0.0223977393523204,0.914416172512565,-0.00231785327196121,0.190898671746254,0.118276536464691,A
1526528204.69506,0.00177439960454303,0.0223581997973551,0.914722368750635,-0.00468838401138783,0.184252083301544,0.111854791641235,A
1526528204.70496,0.00154091048044215,0.0216749757430746,0.915127153944325,-0.00868166144937277,0.167974546551704,0.0947651267051697,A
1526528204.71501,0.00167985567064406,0.0203578901685375,0.915590531321244,-0.0146189602091908,0.158906280994415,0.0888721942901611,A
1526528204.72514,0.00173529715249533,0.0186351949464863,0.916098545663178,-0.0274765715003014,0.155001908540726,0.0845721960067749,A
1526528204.73521,0.00136698123963796,0.0168859625589972,0.916395915901523,-0.0318080708384514,0.155969023704529,0.0724425315856934,A
1526528204.74529,0.000471197771623148,0.0154886892679717,0.916285155704193,-0.0262584947049618,0.148529455065727,0.0572682619094849,A
1526528204.7553,-0.000824422022990616,0.014526645586912,0.915685094491702,-0.016234990209341,0.142806768417358,0.0458383560180664,A
1526528204.76535,-0.00212552952332015,0.013766598618979,0.914760863471764,-0.0011858306825161,0.13476836681366,0.0417120456695557,A
1526528204.7754,-0.00295433020407313,0.0126425275274955,0.913833206882491,0.00316771282814443,0.138237282633781,0.0441051721572876,A
1526528204.78556,-0.00363991334847703,0.0107990975283129,0.913270212910872,0.00154923880472779,0.15140862762928,0.0455283522605896,A
1526528204.7955,-0.00394133608081423,0.00838710710023413,0.913029703688276,0.00905288197100163,0.148813650012016,0.0452909469604492,A
1526528204.8056,-0.00362926177681377,0.00546698582979248,0.912746925040814,0.00771855469793081,0.14950992166996,0.0391325354576111,A
1526528204.81661,-0.00334006183410672,0.00215325753174666,0.912304887105022,0.00472859758883715,0.14640985429287,0.0257642269134521,A
1526528204.82591,-0.00332519494858559,-0.000925536184814153,0.911611472795729,-0.00494507607072592,0.142507076263428,0.0187623500823975,A
1526528204.83575,-0.00364627024216626,-0.00348993204976773,0.910736544076797,0.00094543443992734,0.132938906550407,0.0217462778091431,A
1526528204.84593,-0.00410615803138126,-0.00567948171228893,0.909855982838834,0.00859216414391994,0.12081591039896,0.022573709487915,A
1526528204.85606,-0.00453000746285294,-0.00780887875800011,0.909095803553253,0.0124186482280493,0.118335612118244,0.0243732929229736,A
1526528204.86597,-0.00498921544211443,-0.0104308323878165,0.908545192483309,0.0172264724969864,0.122946433722973,0.0154513716697693,A
1526528204.87599,-0.00540268690793404,-0.0134895579650974,0.908169622992161,0.0157476291060448,0.11102256923914,-0.00704830884933472,A
1526528204.88615,-0.0053978193067465,-0.0158280547658798,0.907448510324242,0.0124314185231924,0.110744260251522,0.00256097316741943,A
1526528204.89634,-0.00550648873489282,-0.0172525812297095,0.90646902797189,0.0132571067661047,0.09450364112854,-0.0003928542137146,A
1526528204.9062,-0.00603271072524287,-0.0184162514366379,0.905353392716519,0.00696243671700358,0.0881216526031494,-0.00941932201385498,A
1526528204.9163,-0.00622779849071535,-0.0200943733636743,0.904272855817042,-0.00511077884584665,0.0966977477073669,-0.00923919677734375,A
1526528204.92637,-0.00588087948765595,-0.022716345554641,0.903062150224272,-0.00229938281700015,0.0866911262273788,-0.00677555799484253,A
1526528204.93622,-0.00508295121928376,-0.0258388492665922,0.901622655809443,0.011093195527792,0.084927573800087,0.00284236669540405,A
1526528204.94658,-0.00386796125209573,-0.0288971560806726,0.899870046611785,0.0041409945115447,0.0829232707619667,0.010668158531189,A
1526528204.95647,-0.00242599486240095,-0.0321626440558722,0.897682791963668,0.010801812633872,0.0817497670650482,0.0116716623306274,A
1526528204.96657,-0.000901320735412246,-0.0360584501074918,0.895515094829807,0.0245213396847248,0.0838681906461716,0.0107173323631287,A
1526528204.97664,0.000353712203294064,-0.040497503883135,0.893641521473054,0.0230993367731571,0.0880383402109146,0.0145761370658875,A
1526528204.9868,0.00120918429020127,-0.0451586677420279,0.892119450698666,0.0358556471765041,0.0787427872419357,0.0128958225250244,A
1526528204.9968,0.00185945511193835,-0.0496081914661183,0.890702622357371,0.0383344814181328,0.0621217489242554,0.00416964292526245,A
1526528205.00691,0.00239957788749394,-0.0531878939758657,0.889114586140974,0.0461420267820358,0.0435473844408989,0.0121175050735474,A
1526528205.01726,0.00240796070248927,-0.0566928955603312,0.887734829669623,0.0458899773657322,0.019143134355545,0.00193053483963013,A
1526528205.02701,0.00200241837786697,-0.0606118755905537,0.886520753644429,0.0388795584440231,0.00985980033874512,-0.0052715539932251,A
1526528205.03693,0.00160511565285495,-0.0640701023679188,0.884940354900909,0.0473178550601006,0.00357016175985336,0.0286933779716492,A
1526528205.04711,0.00125265158104619,-0.0677385013290264,0.883605639248696,0.048783790320158,-0.0261065140366554,0.0222419500350952,A
1526528205.05714,0.00134607308443882,-0.071962238049324,0.8825137095643,0.0458833649754524,-0.031449094414711,0.0261279940605164,A
1526528205.06719,0.0023676225131053,-0.0770621308461129,0.881173618456994,0.043736208230257,-0.0340171307325363,0.0343981385231018,A
1526528205.0773,0.00364050250037659,-0.0828957570734497,0.87929507951012,0.0540807470679283,-0.0557470172643661,0.0315021276473999,A
1526528205.08722,0.00466499484517242,-0.0888718043466603,0.877412167546082,0.0504376627504826,-0.0646917521953583,0.03640216588974,A
1526528205.0975,0.00541979469486559,-0.0945065943474576,0.875654337484392,0.0541594736278057,-0.0714777931571007,0.0501646995544434,A
1526528205.10754,0.00574507123623791,-0.0998907418874228,0.873824609057515,0.0594691447913647,-0.0814751908183098,0.0481907725334167,A
1526528205.12115,0.00549826596056833,-0.105209435103187,0.871792287118356,0.0607705675065517,-0.0888106152415276,0.0407202243804932,A
1526528205.12757,0.00477728152689396,-0.110473761101451,0.869476445419435,0.0584995411336422,-0.0907332003116608,0.0442618727684021,A
1526528205.13761,0.00367051514169949,-0.115745113580585,0.866781672825065,0.0528878644108772,-0.0957419723272324,0.0280771255493164,A
1526528205.14751,0.00254507710350021,-0.120624275015847,0.863660110688638,0.0570742525160313,-0.109528750181198,0.0166257619857788,A
1526528205.15785,0.0019569073398541,-0.125340961064098,0.860215279410827,0.060772068798542,-0.125989586114883,-0.00082772970199585,A
1526528205.16786,0.00187285934616508,-0.130217194377415,0.856655993260365,0.062825009226799,-0.135708883404732,-0.0159143209457397,A
1526528205.17791,0.00211266817208728,-0.135043289539138,0.853219654140115,0.0651520490646362,-0.142338901758194,-0.0187197327613831,A
1526528205.188,0.00242343766940131,-0.139579122415223,0.849937648369552,0.0725818276405334,-0.148586794734001,-0.0144432187080383,A
1526528205.19804,0.00238385924687894,-0.14362455609852,0.846567219076924,0.0825558453798294,-0.159473448991776,-0.0200647115707397,A
1526528205.20886,0.00182683332330524,-0.147294184924296,0.843106708878435,0.0982448309659958,-0.155947953462601,-0.0249595046043396,A
1526528205.21804,0.00111853244051385,-0.151113548804011,0.83995051706044,0.103554248809814,-0.145427390933037,-0.0354596972465515,A
1526528205.22816,0.000797927835779398,-0.155340442929263,0.837269885947009,0.106328383088112,-0.142463654279709,-0.0577109456062317,A
1526528205.23824,0.000900560720653318,-0.159510872100176,0.834838620726568,0.11162918806076,-0.144522562623024,-0.0791473388671875,A
1526528205.24822,0.00102659198618953,-0.163058197466935,0.832585217528569,0.12586385011673,-0.149885430932045,-0.0845693945884705,A
1526528205.2583,0.00100598614843499,-0.165632269639924,0.830722337056041,0.121810510754585,-0.146641731262207,-0.0831136703491211,A
1526528205.26835,0.000883989425443033,-0.167391615267307,0.829311561737703,0.135816603899002,-0.15483121573925,-0.07084721326828,A
1526528205.2785,0.00111255177660279,-0.168668337290315,0.82820444283806,0.13690373301506,-0.155250713229179,-0.0654609799385071,A
1526528205.28858,0.001742677370568,-0.169876580955834,0.827403306202712,0.146185845136642,-0.154702186584473,-0.0564337968826294,A
1526528205.29861,0.00261461837594191,-0.171197944961081,0.827303783524069,0.150682881474495,-0.151853993535042,-0.0486948490142822,A
1526528205.30861,0.00360545385904867,-0.172298935253945,0.828229590112049,0.146106138825417,-0.150680482387543,-0.0396850109100342,A
1526528205.31886,0.00441960262283253,-0.172870616971844,0.830021750391416,0.140879437327385,-0.154921039938927,-0.0344458222389221,A
1526528205.32877,0.00491759889250726,-0.172735388589975,0.832145963226877,0.135597497224808,-0.165911480784416,-0.0435190796852112,A
1526528205.33892,0.00532147997069609,-0.171706988861937,0.834296822137566,0.127370938658714,-0.178661718964577,-0.0462440848350525,A
1526528205.34936,0.0055570454883028,-0.169962889776963,0.836135743420557,0.126236915588379,-0.188066676259041,-0.0427292585372925,A
1526528205.35899,0.00571245482371571,-0.167855541220624,0.837704945820316,0.122297547757626,-0.191818177700043,-0.0328848958015442,A
1526528205.36902,0.0057900492643494,-0.165598125794715,0.839186865031893,0.119838505983353,-0.187501609325409,-0.0204104781150818,A
1526528205.37903,0.00582189361998235,-0.163304586073618,0.840740270746841,0.125877916812897,-0.17770117521286,-0.0138248801231384,A
1526528205.38913,0.00601919109354419,-0.160964883945615,0.842711524541495,0.138040587306023,-0.167594909667969,-0.00684130191802979,A
1526528205.39917,0.00662765840060845,-0.158582793724898,0.845300979273705,0.135957390069962,-0.152853026986122,-0.0043908953666687,A
1526528205.40934,0.00763619567917989,-0.156103210991192,0.848463073747052,0.139520943164825,-0.142316922545433,-0.00468087196350098,A
1526528205.41965,0.0089015125066894,-0.153624393835227,0.852016501906332,0.146049633622169,-0.13533590734005,-0.00903910398483276,A
1526528205.42938,0.0103298242978468,-0.151104935476504,0.855738735743603,0.144283294677734,-0.120547041296959,-0.0168184638023376,A
1526528205.43947,0.011641211531713,-0.148626169455032,0.859320213212193,0.153694301843643,-0.10398168861866,-0.0296615362167358,A
1526528205.44951,0.0125256299328974,-0.145961228546723,0.862459633809699,0.154935762286186,-0.0877042412757874,-0.0587152242660522,A
1526528205.4596,0.0127487432168591,-0.142421837130778,0.864862067754689,0.158508002758026,-0.0806157737970352,-0.0751314759254456,A
1526528205.46965,0.0123210505957962,-0.137559833792746,0.866640389781797,0.161333858966827,-0.0674853026866913,-0.0866242647171021,A
1526528205.47964,0.0115252063305727,-0.131591750037176,0.868505927684239,0.159961402416229,-0.0445271134376526,-0.094221830368042,A
1526528205.48976,0.0112298648486916,-0.125123285203494,0.871281140324629,0.143460214138031,-0.016001895070076,-0.106360495090485,A
1526528205.49964,0.0124284596097427,-0.118767565305613,0.875171797036427,0.142963364720345,-0.00267433375120163,-0.115061938762665,A
1526528205.50986,0.0158353135847062,-0.113088751988901,0.880152363607441,0.130827158689499,0.00202030688524246,-0.114697098731995,A
1526528205.51993,0.0210052280235079,-0.108324456451655,0.885824269724959,0.122124798595905,0.000758729875087738,-0.101173460483551,A
1526528205.52993,0.0268297123760622,-0.104147254624078,0.891757441986418,0.120108410716057,-0.00142002105712891,-0.0693292021751404,A
1526528205.54002,0.0323836567398322,-0.100153778432612,0.89786485931046,0.123454421758652,-0.00193344801664352,-0.0301758050918579,A
1526528205.55033,0.0370877649857795,-0.0959302720838252,0.904381212830812,0.130251258611679,-0.00412365794181824,0.00443756580352783,A
1526528205.5602,0.0405756251681524,-0.0913861882863441,0.911216961245315,0.12980130314827,0.00799938291311264,0.0251131057739258,A
1526528205.57013,0.0426949445577431,-0.086634356942499,0.918147617409477,0.137577593326569,0.0163334682583809,0.0268206000328064,A
1526528205.58028,0.0439807281431867,-0.0813916456999487,0.92528344794292,0.145098060369492,0.0133179351687431,0.0245953798294067,A
1526528205.5904,0.0451678562042982,-0.0753052636698369,0.932541757472099,0.134159430861473,0.0125039219856262,0.0293672680854797,A
1526528205.60039,0.0467625873114714,-0.068910327665383,0.940060820566586,0.14123161137104,0.0112986192107201,0.0311734676361084,A
1526528205.61051,0.048960225292236,-0.0630601663265336,0.948253416880071,0.135040283203125,0.0180668234825134,0.0226038098335266,A
1526528205.62062,0.0518228540029524,-0.0579073823321075,0.957196331182394,0.121489681303501,0.0198837593197823,0.0157518982887268,A
1526528205.6306,0.055004332006991,-0.0530250653469573,0.9666846886831,0.122194170951843,0.00519679859280586,0.0291582345962524,A
1526528205.64066,0.0581280589813267,-0.048074313726594,0.976686185803341,0.116425529122353,-0.00786414742469788,0.0441394448280334,A
1526528205.65165,0.0609777287921551,-0.0428224008245924,0.986840455402076,0.104551710188389,-0.0192955210804939,0.0607334971427917,A
1526528205.66074,0.0632373590754163,-0.0374457928267215,0.99679288577431,0.10432954877615,-0.0183330401778221,0.0748772621154785,A
1526528205.67081,0.0648470940458729,-0.0321682286674153,1.00647581788217,0.0932213738560677,-0.014340415596962,0.0710818767547607,A
1526528205.68089,0.0661764892212582,-0.0270027820672442,1.01566231024497,0.0891388282179832,-0.0130529683083296,0.0674852132797241,A
1526528205.69086,0.0676297791919831,-0.0219254155274669,1.02467758662438,0.0873604938387871,-0.0148588381707668,0.069068431854248,A
1526528205.70098,0.0695186970453473,-0.016699221573091,1.03392318250119,0.0690815150737762,-0.0150504969060421,0.0707334280014038,A
1526528205.71107,0.0718509419240324,-0.0114126849391409,1.04335195478775,0.0674977675080299,-0.0145099721848965,0.0869697332382202,A
1526528205.72113,0.0746006391374457,-0.00664154536963874,1.05317667350031,0.0619295313954353,-0.00757228210568428,0.100147724151611,A
1526528205.73123,0.07778744077766,-0.00270099000463612,1.06367601461761,0.0558514446020126,-0.00500506162643433,0.119073271751404,A
1526528205.7413,0.0808008879407103,0.000182101586144873,1.07450085080146,0.0377562418580055,0.0179891102015972,0.136370539665222,A
1526528205.75128,0.0832077033364852,0.00218826200380908,1.08461447727161,0.0138428211212158,0.0295167528092861,0.127809226512909,A
1526528205.76137,0.08471596067092,0.00365106225051859,1.09302267427994,0.012462317943573,0.0314067900180817,0.111549913883209,A
1526528205.77144,0.0853875800844221,0.00507271405549098,1.10010816313514,0.00958113372325897,0.0453253798186779,0.0833494663238525,A
1526528205.78148,0.0857550969519963,0.00705115737162005,1.10664304335513,-0.0102847367525101,0.0596939213573933,0.0645378232002258,A
1526528205.79153,0.0862083950279113,0.00960884272042385,1.11312789364964,-0.0254134759306908,0.0760149508714676,0.04917311668396,A
1526528205.80163,0.087396251243929,0.0123882331530731,1.11982408457405,-0.0424327626824379,0.0804115980863571,0.0395486950874329,A
1526528205.81166,0.089783020482571,0.0146121802933257,1.12684608625134,-0.0645216479897499,0.0933927893638611,0.0446634888648987,A
1526528205.82186,0.0928832479719245,0.0157394981387768,1.13417145623487,-0.0807753652334213,0.106391310691833,0.0461337566375732,A
1526528205.83183,0.0963843290539923,0.0158282393782746,1.14143518945793,-0.0941326543688774,0.125645086169243,0.053400456905365,A
1526528205.84176,0.0997300464771794,0.015023645815792,1.14774188838275,-0.116765484213829,0.152214854955673,0.0322417616844177,A
1526528205.85178,0.102273930617828,0.0143227581847276,1.15276538193702,-0.106784962117672,0.14721105992794,0.00660490989685059,A
1526528205.86203,0.103908862837585,0.0150237918115626,1.1564460204484,-0.115383245050907,0.13216495513916,0.0120111703872681,A
1526528205.87202,0.104164548752976,0.0170499525857645,1.15915842688993,-0.120440661907196,0.138219177722931,0.0283249616622925,A
1526528205.88199,0.103216224287293,0.0196624188631038,1.16169462654774,-0.138321965932846,0.159340113401413,0.0291536450386047,A
1526528205.89223,0.102028953014292,0.0222699608775071,1.16452858961238,-0.148411855101585,0.170110523700714,0.0446322560310364,A
1526528205.90233,0.101565721215253,0.0237620030023616,1.16789484507517,-0.1571334451437,0.175050660967827,0.0427682995796204,A
1526528205.91235,0.102329633983525,0.0237305870219327,1.17161037741902,-0.169169485569,0.182129845023155,0.0391817688941956,A
1526528205.92243,0.104114578835452,0.0226409843913812,1.17517178266551,-0.181445121765137,0.182780042290688,0.0343080759048462,A
1526528205.93256,0.106349110439041,0.0212697675366881,1.17805717048506,-0.188720569014549,0.17088058590889,0.0324249267578125,A
1526528205.94257,0.108131468216983,0.0202151436980794,1.17987361266146,-0.185215100646019,0.165050193667412,0.0428302884101868,A
1526528205.95302,0.108458426906614,0.0197690849113476,1.1809134331918,-0.185235872864723,0.172813445329666,0.052706778049469,A
1526528205.96264,0.107039061167775,0.0198887060699262,1.18144217987521,-0.184725016355515,0.185658872127533,0.0528417229652405,A
1526528205.97268,0.10449368758496,0.0204322013137915,1.18182763492825,-0.177569836378098,0.191008776426315,0.0407246351242065,A
1526528205.98284,0.101606640319077,0.0212545266152614,1.18222730227815,-0.176177054643631,0.187985718250275,0.0227091908454895,A
1526528205.99312,0.0986404657438689,0.0222504504993507,1.18289650976791,-0.175665676593781,0.181092604994774,0.0170789361000061,A
1526528206.00313,0.0960886676492576,0.023354370078267,1.18375924572589,-0.192441806197166,0.168387040495872,0.0212233662605286,A
1526528206.01311,0.0945026491136759,0.0238533913509773,1.18442048388581,-0.201619744300842,0.155671805143356,0.0111544132232666,A
1526528206.02318,0.0939193304812457,0.0234058633721745,1.18482955363482,-0.208394914865494,0.127758592367172,0.00308686494827271,A
1526528206.03305,0.0936451491228513,0.0223727146088008,1.1847042552539,-0.218988478183746,0.104493647813797,0.0108417272567749,A
1526528206.04323,0.0928353107451758,0.021462912732859,1.18392285601456,-0.215895384550095,0.0842206627130508,0.024700403213501,A
1526528206.05328,0.0914665725488825,0.0210906566205274,1.18263462315209,-0.21372477710247,0.0701003223657608,0.0405049920082092,A
1526528206.06343,0.0895560176872639,0.0209239783253084,1.18094471615706,-0.217422753572464,0.0648525059223175,0.0457470417022705,A
1526528206.07351,0.0871473223835602,0.0204694053520641,1.17861712461012,-0.21670326590538,0.0555021539330482,0.0411471128463745,A
1526528206.08481,0.084558073102276,0.019866280353559,1.17560739384633,-0.219587773084641,0.0445079170167446,0.0390771627426147,A
1526528206.09361,0.0821620502418055,0.0191281582398372,1.17187639057011,-0.220146656036377,0.0340043120086193,0.0430598855018616,A
1526528206.10362,0.0800602516768637,0.0179144671318018,1.16765211956421,-0.214513927698135,0.0303646828979254,0.0366454720497131,A
1526528206.11366,0.0783672092781371,0.0160194533365887,1.16292789367458,-0.209716185927391,0.0293396897614002,0.0267406702041626,A
1526528206.12381,0.0769388980560235,0.0137074800327401,1.15761782605649,-0.198926106095314,0.0324753597378731,0.0196683406829834,A
1526528206.1338,0.075628503946083,0.0114397067466889,1.15163636071487,-0.185857266187668,0.0243483912199736,0.0183470249176025,A
1526528206.14384,0.0737224131198899,0.009517718823035,1.14490467884702,-0.170072600245476,0.0270957015454769,0.0187229514122009,A
1526528206.1543,0.070787546735832,0.00822653686074763,1.13749611128831,-0.160829201340675,0.0359974391758442,0.019632875919342,A
1526528206.16422,0.0671635598384758,0.00771675279314065,1.12965950560298,-0.150469839572906,0.0466418489813805,0.0220381617546082,A
1526528206.17429,0.0635199346945392,0.00759454963237739,1.12167575210964,-0.140501767396927,0.0544389560818672,0.0133811235427856,A
1526528206.18464,0.0605422630230174,0.00721963882912138,1.11371325991474,-0.135714277625084,0.0635397657752037,-8.80956649780273e-05,A
1526528206.19444,0.05827870832342,0.00620204471171827,1.10589243783128,-0.129320040345192,0.0650704130530357,-0.00395995378494263,A
1526528206.20441,0.0564855803742872,0.00468171855348199,1.09817480414303,-0.12772873044014,0.0626498460769653,-6.46710395812988e-05,A
1526528206.21458,0.0547316402205965,0.00305291934404866,1.09032833484968,-0.128922820091248,0.0553600415587425,0.00554752349853516,A
1526528206.22471,0.0524151107148085,0.00169715789481712,1.08222708369907,-0.122764572501183,0.0468479134142399,0.0135330557823181,A
1526528206.23454,0.0492796570019302,0.000899478356531353,1.07367716079907,-0.121632128953934,0.0446159094572067,0.0176759958267212,A
1526528206.24465,0.0453851787491218,0.000723032450017975,1.06434292390118,-0.110890828073025,0.0359403192996979,0.0208663940429688,A
1526528206.25464,0.0411541596784677,0.000844203879921562,1.05425986735984,-0.104497022926807,0.0381977185606956,0.0166853070259094,A
1526528206.26465,0.0368301375293254,0.000856209885663968,1.0436462807805,-0.103441670536995,0.0486467368900776,0.00136613845825195,A
1526528206.27475,0.0323574187050719,0.000677745101896008,1.03282488055499,-0.0879090130329132,0.0575625114142895,-0.00659668445587158,A
1526528206.28572,0.0278365894223772,0.000577357899275543,1.02224447592481,-0.0693521499633789,0.0660223066806793,-0.00339359045028687,A
1526528206.29486,0.0232977390049524,0.00062864422763962,1.01227895901317,-0.0526077598333359,0.0728484913706779,0.00258183479309082,A
1526528206.30504,0.0189402093641111,0.000652969990726957,1.00290483068507,-0.0488462969660759,0.0733458399772644,-0.00249892473220825,A
1526528206.31502,0.0148575052051856,0.000423011488172894,0.99382638012108,-0.0418650135397911,0.0599017702043056,-0.0061834454536438,A
1526528206.32507,0.0109596503068153,-5.07948587714349e-05,0.984941348899829,-0.0392034500837326,0.0381266959011555,-0.00352382659912109,A
1526528206.33513,0.00711813219575489,-0.000497113247889843,0.976031789125803,-0.0475386045873165,0.0258090384304523,0.00854998826980591,A
1526528206.34528,0.00325645474941164,-0.000894520814174792,0.966787472914204,-0.0373140648007393,0.016775157302618,0.0197391510009766,A
1526528206.35521,-0.000900050532312236,-0.00145394338957888,0.957060487298561,-0.0241396240890026,0.0104021364822984,0.0266250967979431,A
1526528206.36526,-0.00553506180044717,-0.00229082232895724,0.946670526254466,-0.0103493798524141,0.00977888144552708,0.0322849154472351,A
1526528206.37546,-0.0107743991864379,-0.00340606125197123,0.935624251608153,0.019776813685894,0.0137600833550096,0.0318575501441956,A
1526528206.3857,-0.016386615575866,-0.0045069429013484,0.924374153904447,0.0454537086188793,0.0165044255554676,0.0196614861488342,A
1526528206.39539,-0.0222154793370978,-0.00516313554309467,0.912650242870557,0.0825618654489517,0.0357304438948631,0.02284175157547,A
1526528206.40546,-0.0278661161306576,-0.00570927372486446,0.901049770898063,0.121917232871056,0.0412878282368183,-0.00174731016159058,A
1526528206.41544,-0.0328854508314338,-0.00647552716622581,0.89016363396996,0.134868577122688,0.0505466125905514,-0.020443856716156,A
1526528206.42568,-0.0372116972106189,-0.00749396807807219,0.880225131805375,0.166962802410126,0.0664959698915482,-0.0220826268196106,A
1526528206.43566,-0.0407674357397903,-0.00875635295819843,0.871151265895514,0.201353341341019,0.0632042065262794,-0.0236505270004272,A
1526528206.4458,-0.0438253815985404,-0.00994898092960623,0.862593463661894,0.226411119103432,0.0538634359836578,-0.0118128657341003,A
1526528206.45588,-0.0468560301354703,-0.0111973962442001,0.853947035069636,0.267203390598297,0.0445279367268085,-0.0030980110168457,A
1526528206.46599,-0.0499732278593093,-0.0126174629603962,0.845382397393083,0.278815031051636,0.0392322391271591,-0.00897252559661865,A
1526528206.476,-0.0531984876437773,-0.0137345301617082,0.837157297243346,0.283179372549057,0.0418078936636448,-0.00752085447311401,A
1526528206.48644,-0.0565957340470352,-0.0143075973839031,0.829179186852055,0.302485644817352,0.0361231863498688,-0.00527387857437134,A
1526528206.49605,-0.0601370631722607,-0.0144510725596565,0.821620309594629,0.304189383983612,0.0408015064895153,-0.0153854489326477,A
1526528206.50603,-0.0630776767332106,-0.0144514263418951,0.814587571816552,0.30262279510498,0.0454856008291245,-0.0249811410903931,A
1526528206.51667,-0.0651268198108224,-0.0146846859771466,0.808076422504388,0.314371883869171,0.050226729363203,-0.0353086590766907,A
1526528206.52632,-0.0666604415096199,-0.0152615027077129,0.802252675604971,0.323820739984512,0.0706765875220299,-0.0493189692497253,A
1526528206.53639,-0.0675719596294054,-0.0157142909694137,0.797436817988159,0.34352844953537,0.0793943852186203,-0.0464726686477661,A
1526528206.5463,-0.0678133745538078,-0.0157867143942114,0.79355862461272,0.346500515937805,0.0872260257601738,-0.0434688925743103,A
1526528206.55657,-0.0676290986598894,-0.0155529156253088,0.790440966181551,0.348117470741272,0.0873835012316704,-0.0485187172889709,A
1526528206.56644,-0.0672043694408242,-0.014947816550097,0.788096791467864,0.343009948730469,0.0816866531968117,-0.0460394620895386,A
1526528206.57652,-0.0666588548288605,-0.0138057000857612,0.786512115363058,0.332624882459641,0.0774575546383858,-0.0388759970664978,A
1526528206.58718,-0.0658538420981094,-0.0120148256878296,0.785545699227495,0.322652697563171,0.0660189092159271,-0.033230185508728,A
1526528206.59662,-0.0644790510868723,-0.00961767446431327,0.784586527836645,0.304940432310104,0.0458939485251904,-0.0291017293930054,A
1526528206.60668,-0.0624890282943384,-0.00638188355860947,0.783212706686119,0.274590045213699,0.0348474085330963,-0.0209540724754333,A
1526528206.61682,-0.0603132774249772,-0.00260623375248057,0.781382101577819,0.260410785675049,0.0348693579435349,-0.00243204832077026,A
1526528206.62705,-0.0575659986806507,0.000874456060541065,0.779576283457401,0.248360604047775,0.045750554651022,-0.00949984788894653,A
1526528206.63774,-0.0530841500122249,0.00358017642490728,0.778260829866164,0.238300576806068,0.06122787296772,-0.0235555171966553,A
1526528206.64692,-0.0465296794772642,0.00553346366722611,0.77791145925866,0.229465067386627,0.0740301385521889,-0.0288533568382263,A
1526528206.65702,-0.039378987100701,0.00690675682153615,0.778561175327823,0.227981761097908,0.0833379775285721,-0.0105036497116089,A
1526528206.66703,-0.0340529582510727,0.00770279791484338,0.779839950306947,0.213961750268936,0.0870636850595474,0.0429239273071289,A
0,0,0,0,0,0,0,0,0
1526528207.75534,0.117659219006835,-0.046651166512852,1.0709742948015,-0.040020227432251,-0.0672183483839035,0.0323804616928101,A
1526528207.76364,0.117047436368413,-0.0449567111002039,1.07166063124425,-0.0237668603658676,-0.0946699678897858,0.0399143099784851,A
1526528207.77366,0.115672651866612,-0.0442302900437884,1.0723423644761,-0.0371312201023102,-0.107738211750984,0.0193692445755005,A
1526528207.78426,0.115090273642372,-0.0445292252002732,1.07289865203754,-0.08174829185009,-0.12042698264122,0.0217118263244629,A
1526528207.7942,0.116035796945399,-0.0458568177893777,1.0732722757103,-0.0931471586227417,-0.145617976784706,0.00810033082962036,A
1526528207.80515,0.118292196844488,-0.0481022548285575,1.07358158413544,-0.0957089811563492,-0.171435758471489,-0.0136301517486572,A
1526528207.81412,0.120635779564737,-0.0505256922312618,1.07391663335303,-0.0913354381918907,-0.183194637298584,-0.0205279588699341,A
1526528207.82427,0.122343186552761,-0.0523318755119308,1.07439498520264,-0.068679004907608,-0.199341684579849,-0.0114731788635254,A
1526528207.83422,0.123264741159528,-0.0532947152288728,1.07500677357008,-0.060873344540596,-0.22805891931057,-0.0125671029090881,A
1526528207.84489,0.123604702863471,-0.0532887820650382,1.07554235753258,-0.0803905725479126,-0.23540772497654,-0.0204973816871643,A
1526528207.85859,0.123419198430167,-0.0519905266113672,1.07536491206063,-0.130614936351776,-0.229564160108566,-0.0260372757911682,A
1526528207.86501,0.122630060916103,-0.0492674722614625,1.07365291547494,-0.160779252648354,-0.222923085093498,-0.030534029006958,A
1526528207.87518,0.121081293539657,-0.0452759816406212,1.07040223698458,-0.131541386246681,-0.216387838125229,-0.0274426937103271,A
1526528207.88857,0.119135969399445,-0.0406034731568209,1.06630666341977,-0.0972414910793304,-0.198536038398743,-0.0182368755340576,A
1526528207.89525,0.117046010811206,-0.0362101505084453,1.06209190213038,-0.0838044434785843,-0.157128140330315,-0.010743260383606,A
1526528207.90681,0.115038767198086,-0.032603072686756,1.05839437489803,-0.0574579685926437,-0.124073728919029,-0.0127680897712708,A
1526528207.91537,0.113478394098445,-0.0297738202793911,1.05544767253963,-0.027583010494709,-0.105559825897217,-0.00710099935531616,A
1526528207.92657,0.111894316483709,-0.0274782515204837,1.05309678736519,-0.0190742611885071,-0.0808500424027443,-0.00824624300003052,A
1526528207.93547,0.109675314053575,-0.0250756436765705,1.05106740691013,-0.00137367844581604,-0.0681485831737518,-0.00339114665985107,A
1526528207.94503,0.10654963340301,-0.0222179869651396,1.04910874081321,0.00393811613321304,-0.048919040709734,0.00717556476593018,A
1526528207.95893,0.103029447836474,-0.0189021460545827,1.04670768621627,-0.0112761557102203,-0.0318557322025299,-0.00685381889343262,A
1526528207.96503,0.0994053433171945,-0.0152402942297547,1.04347394572219,-0.00546492636203766,-0.0315208323299885,-0.0128799676895142,A
1526528207.97517,0.0958318680748465,-0.0114796780392608,1.03980204856514,0.00753150135278702,-0.0262194164097309,-0.0134429931640625,A
1526528207.98548,0.0921824522256552,-0.00789386566516326,1.03636820852523,0.0128398314118385,-0.0172931961715221,-0.0090222954750061,A
1526528207.99517,0.0887956033624202,-0.00508540419415895,1.0336712847788,0.0355439856648445,-0.000492487102746964,0.00244081020355225,A
1526528208.00558,0.0861921962704097,-0.00355251206433941,1.03190997785493,0.0434316322207451,0.00212376564741135,0.00897675752639771,A
1526528208.01539,0.0843888700267558,-0.00320454694511131,1.03038249588851,0.0411236733198166,0.00668315216898918,0.00243294239044189,A
1526528208.0255,0.082613157213609,-0.00341045917088294,1.02859402609341,0.0502479895949364,0.004737738519907,-0.000974893569946289,A
1526528208.03544,0.0800758032567382,-0.00327079670045446,1.02683625684079,0.0637327060103416,0.00458748638629913,0.00202405452728271,A
1526528208.04561,0.0767201671214087,-0.00206081347775857,1.02534813487087,0.0619355589151382,0.0117483921349049,0.00633364915847778,A
1526528208.05723,0.0733585140944596,0.000309555948660371,1.0239019636584,0.0693464279174805,0.000736800953745842,0.00312399864196777,A
1526528208.06586,0.0707560859631653,0.00299009691181266,1.02200547706399,0.0588045939803123,-0.00183168426156044,-0.0122417211532593,A
1526528208.07566,0.0691143056155852,0.00538363070672929,1.01932682628298,0.0359832122921944,0.000302428379654884,-0.0277619957923889,A
1526528208.08816,0.0676947488209707,0.00737952983979671,1.01611020795855,0.0479898899793625,0.00428192876279354,-0.0102521777153015,A
1526528208.0958,0.0661151099962629,0.00909961436753823,1.01297093276707,0.0494905933737755,0.0267691649496555,-0.00146317481994629,A
1526528208.10608,0.0646489786735681,0.0111963100167847,1.00982493549851,0.0302182137966156,0.0469779372215271,-0.00941473245620728,A
1526528208.11693,0.0638886662718439,0.0141489763480666,1.0061281622187,0.044956348836422,0.0446508228778839,-0.0191536545753479,A
1526528208.12602,0.0637715467365674,0.0177856982044786,1.00205675540391,0.0578027442097664,0.0443045347929001,-0.0238732695579529,A
1526528208.13624,0.0639593150747592,0.0219120741424621,0.997833906782392,0.0441013351082802,0.0633989721536636,-0.0120956897735596,A
1526528208.14614,0.0636707215952546,0.0261217039149097,0.993720791694337,0.0504992231726646,0.0836291089653969,0.0139296054840088,A
1526528208.15609,0.0627485617403351,0.0299827083246304,0.989947853946848,0.0531197413802147,0.0882667899131775,0.0256900787353516,A
1526528208.16614,0.0612655541329612,0.0333384968879117,0.986328795837397,0.0588171631097794,0.0909189879894257,0.03492271900177,A
1526528208.1761,0.0599384833202579,0.0359928024564953,0.982941816223472,0.0417902506887913,0.0998430624604225,0.0118857026100159,A
1526528208.18695,0.0591134493812973,0.0382734296222565,0.980136675045519,0.0394749790430069,0.089106373488903,-0.00375950336456299,A
1526528208.19631,0.0587125064879866,0.0408392553286354,0.977662615996925,0.0271245427429676,0.0875350534915924,-0.000892221927642822,A
1526528208.20629,0.0584954445121704,0.0440351508241796,0.974731766707207,0.00406406447291374,0.0865471661090851,0.00595837831497192,A
1526528208.21672,0.0578346431559868,0.0477854831352527,0.970797627279376,0.00162026658654213,0.0754162222146988,0.0167807340621948,A
1526528208.22647,0.0565825904610565,0.0518537311220724,0.966374737131031,0.012798510491848,0.0860407054424286,0.0282618999481201,A
1526528208.23694,0.0550207309122553,0.0554599954421679,0.962436696745005,0.0323260761797428,0.0991479977965355,0.0430941581726074,A
1526528208.24677,0.0535085748418649,0.0580951681819545,0.959684121407994,0.0429816991090775,0.109545648097992,0.0469634532928467,A
1526528208.25689,0.0524389395946475,0.0599640328943666,0.958043612893291,0.0521562211215496,0.106925174593925,0.0518079996109009,A
1526528208.26654,0.0514378893788032,0.0613624416042688,0.956925084068148,0.0487639605998993,0.105665981769562,0.0469076037406921,A
1526528208.27676,0.0497903310027782,0.0628963615472783,0.955522824997589,0.0208242572844028,0.103885784745216,0.0297448039054871,A
1526528208.28811,0.0469401788734016,0.0654115343884226,0.953308786970098,0.0101537257432938,0.0904198288917542,0.0225191116333008,A
1526528208.29679,0.0430323512383844,0.0690132666088696,0.950407828363817,0.00336324423551559,0.0867349877953529,0.015540599822998,A
1526528208.30691,0.0389623614316185,0.0727917778937285,0.947288619094761,0.0093684196472168,0.0996897891163826,0.00683355331420898,A
1526528208.31698,0.0357173898941439,0.0755180797205013,0.944613342498952,0.0265257731080055,0.106543734669685,0.000313341617584229,A
1526528208.32724,0.0333414200301779,0.0769386617456957,0.942926200972859,0.0436981879174709,0.114002667367458,0.00672620534896851,A
1526528208.3378,0.0317231807031303,0.0775005339495515,0.942621846135058,0.0582363568246365,0.11676013469696,0.0274872779846191,A
1526528208.34715,0.0309758452207732,0.0779506133196801,0.943073691745937,0.0415108501911163,0.104986563324928,0.0289710760116577,A
1526528208.35731,0.0304918150790229,0.0790006027849281,0.942846030833769,0.0225407369434834,0.086639404296875,0.0282475352287292,A
1526528208.36716,0.0294012671590511,0.0807498984747212,0.941557215763573,0.0092577189207077,0.0937084406614304,0.0238833427429199,A
1526528208.37735,0.0271446650868462,0.0829285567593042,0.939586704454934,0.000219399109482765,0.109856851398945,0.0257678031921387,A
1526528208.38749,0.0242642437470078,0.0848913326405985,0.93758986805119,0.0155136156827211,0.138256207108498,0.0260586142539978,A
1526528208.39739,0.021834224494384,0.0857462767139264,0.936261232069372,0.0305243320763111,0.169015258550644,0.00567108392715454,A
1526528208.40747,0.0207455354118311,0.0852181682878422,0.935913422309466,0.0465156808495522,0.185243234038353,-0.0189647078514099,A
1526528208.41879,0.0214215046502966,0.0836639226487795,0.9361929385761,0.0533773452043533,0.187936469912529,-0.0381960272789001,A
1526528208.42794,0.0231912353902239,0.082338728430001,0.936435557455964,0.0458896495401859,0.175537958741188,-0.0442595481872559,A
1526528208.43771,0.0242158263005041,0.0824670929471315,0.936537104102877,0.0368887260556221,0.168952018022537,-0.0144023299217224,A
1526528208.44779,0.0234394251346622,0.0843159259390851,0.936665270353793,0.0223307944834232,0.173235833644867,0.0220679640769958,A
1526528208.45789,0.0212288486842312,0.0871646461071131,0.936799239012977,0.0136891473084688,0.173892080783844,0.0419232845306396,A
1526528208.46783,0.0186083522398271,0.089928375884921,0.936704054647876,0.0187298730015755,0.16938179731369,0.044218122959137,A
1526528208.47788,0.016697436164956,0.0918146515149236,0.93641952726747,0.0231075547635555,0.166942059993744,0.0424936413764954,A
1526528208.48824,0.0160951365586251,0.0924394456035092,0.936265277851475,0.0292318426072598,0.164253041148186,0.0510672330856323,A
1526528208.49808,0.0165441177881304,0.0918948249824073,0.936318260297193,0.0240232646465302,0.168120533227921,0.0580070614814758,A
1526528208.50804,0.0175670378717947,0.0906997148192484,0.936444800988929,0.018776211887598,0.171904757618904,0.0615165829658508,A
1526528208.51845,0.0187503567780132,0.0895804882995847,0.936393875016152,0.00656395778059959,0.166471838951111,0.0559349060058594,A
1526528208.52829,0.0195987465790912,0.0890072977845472,0.936034652833217,0.00593174621462822,0.15949222445488,0.056152880191803,A
1526528208.53818,0.0198709463692369,0.0888695547213365,0.935480571071174,0.00144900381565094,0.157203555107117,0.0551984906196594,A
1526528208.54829,0.0194444284938184,0.0889436193652483,0.934901283843924,0.00291148573160172,0.158223360776901,0.0651490092277527,A
1526528208.55853,0.0188867111234031,0.0885962982245539,0.93434077796444,0.0151850655674934,0.162226170301437,0.0771380662918091,A
1526528208.5687,0.018671306046255,0.0872037572986381,0.934030129309052,0.0203258953988552,0.164699479937553,0.0663237571716309,A
1526528208.57854,0.018959067424811,0.0851430590283453,0.933918164722165,0.0240032002329826,0.149768009781837,0.0526559948921204,A
1526528208.58855,0.0197604954936529,0.0830409293171597,0.934048596846019,0.024757731705904,0.131514251232147,0.047522246837616,A
1526528208.5986,0.0207830854978549,0.0812012561794128,0.934582206253391,0.0213706251233816,0.107113026082516,0.0408928394317627,A
1526528208.60871,0.0215624712106313,0.0798278122436149,0.935519403823061,0.0147780030965805,0.0921789705753326,0.0449541211128235,A
1526528208.62037,0.0216859988212145,0.0789211427873459,0.936790012864086,0.0112201124429703,0.079861581325531,0.0611823797225952,A
1526528208.62925,0.021226013745598,0.0782641186525734,0.937999133622729,-0.000758448615670204,0.0732861757278442,0.0693614482879639,A
1526528208.63905,0.0205415492840046,0.0773723705909256,0.938692187024545,-0.0101026762276888,0.0764864832162857,0.0672019720077515,A
1526528208.65022,0.0197168673734061,0.0758512784450562,0.938920340491884,-0.0120295062661171,0.0760990008711815,0.0577676296234131,A
1526528208.65928,0.018905802888973,0.0739165829631384,0.939097711977292,-0.0159386247396469,0.0788389146327972,0.0465754270553589,A
1526528208.67041,0.0180841624746943,0.0718999407767233,0.93962699675525,-0.0164495408535004,0.0820766538381577,0.0381010174751282,A
1526528208.68068,0.0176169313814582,0.0700089427870956,0.940530663450938,-0.0115303862839937,0.0676782131195068,0.0268908143043518,A
1526528208.69078,0.0176515016739379,0.0681151595933315,0.941561425377572,-0.0119028687477112,0.049263671040535,0.0206884741783142,A
1526528208.70054,0.0182273895222963,0.0660302421140983,0.942502962714662,-0.026075454428792,0.0485262125730515,0.0196124315261841,A
1526528208.71014,0.0190084533719991,0.0639124493925277,0.943131667652947,-0.0383013859391212,0.0550341084599495,0.0213375687599182,A
1526528208.72256,0.019888963437779,0.061922681934138,0.943298848133309,-0.0332925319671631,0.060189388692379,0.0299752354621887,A
1526528208.7307,0.0206535381937364,0.059640339066472,0.943148959164758,-0.0305335652083158,0.0809062570333481,0.0254597067832947,A
1526528208.74028,0.0212980762450806,0.0569986734742961,0.942811121237716,-0.0173403732478619,0.0841132029891014,0.0060994029045105,A
1526528208.75122,0.0220425272045112,0.0544149377116546,0.942679097547496,4.0832906961441e-05,0.0759182423353195,0.00077974796295166,A
1526528208.76046,0.0228544598414411,0.052095220573869,0.9428942093368,0.00238605216145515,0.0677576959133148,-0.001800537109375,A
1526528208.77097,0.0236538363128186,0.0501007075756707,0.943198750254211,0.00350817292928696,0.0620426386594772,-0.00214451551437378,A
1526528208.78049,0.0245369589397379,0.0481958861101106,0.943477302319349,0.00297506898641586,0.0624899715185165,0.00827324390411377,A
1526528208.79159,0.0254812877676954,0.0462305423718911,0.943666227344479,0.000427599996328354,0.0659131705760956,0.0192981958389282,A
1526528208.80064,0.026358456427608,0.0442982513677571,0.943529118727592,0.00850626453757286,0.0730770975351334,0.031920850276947,A
1526528208.81069,0.026995229542607,0.0423301377591051,0.943115667041638,0.0228369161486626,0.0770770162343979,0.0387487411499023,A
1526528208.82129,0.0271400556765863,0.0404605431806419,0.942865032554167,0.0314792357385159,0.0784591510891914,0.0426216125488281,A
1526528208.83087,0.0270449068497742,0.0387910175719932,0.94297536592724,0.0339070782065392,0.0741816759109497,0.0429496765136719,A
1526528208.8409,0.0273189017001735,0.0371080264165578,0.943385264231586,0.0327771529555321,0.0673119127750397,0.0356360673904419,A
1526528208.86062,0.0285388733395134,0.0348775015683964,0.943833935376779,0.0236826725304127,0.0599863976240158,0.0204997658729553,A
1526528208.86142,0.0305947504151777,0.0317962418241388,0.944382184597161,0.0200083702802658,0.0465308725833893,0.00845670700073242,A
1526528208.87159,0.0331793643902716,0.0284769574993297,0.944935362870904,0.015485193580389,0.0454866588115692,0.0284023284912109,A
1526528208.88114,0.0355377287930185,0.0257847696779977,0.9452880721409,0.0211984813213348,0.0500739030539989,0.047650933265686,A
1526528208.89368,0.0370278940004756,0.0237423152967843,0.945481767528061,0.0274746455252171,0.0405247509479523,0.0588931441307068,A
1526528208.90068,0.0381295159477465,0.021677512404424,0.945524029006097,0.0254110172390938,0.0412223264575005,0.0578305125236511,A
1526528208.9107,0.0391162330188617,0.019304715931672,0.945390038234241,0.0250184610486031,0.0451213866472244,0.0752207636833191,A
1526528208.9249,0.0396043603067255,0.0167652222066195,0.945135252360134,0.0234303548932076,0.0442150011658669,0.0782837867736816,A
1526528208.93099,0.0398485754248426,0.0142008360981011,0.945082319448104,0.0224828831851482,0.037882000207901,0.0650691390037537,A
1526528208.94094,0.0402893583380176,0.0116213041070739,0.945496620395411,0.0129469148814678,0.0302215069532394,0.0472777485847473,A
1526528208.95163,0.0408530151501318,0.00910513835502964,0.946151592733808,0.00460071116685867,0.0203202217817307,0.0342347025871277,A
1526528208.96172,0.0411594588427799,0.00657371383230405,0.946711874750074,-0.00315256416797638,0.0143098719418049,0.0219586491584778,A
1526528208.97348,0.0413804591198243,0.0039143396594506,0.947039626020887,-0.00688346847891808,-0.00373032316565514,0.0128691792488098,A
1526528208.98189,0.041623907630095,0.00135603980995569,0.946737206683489,-0.0106517672538757,-0.00195511803030968,0.0208919644355774,A
1526528208.99289,0.0416946499419913,-0.00101711211913149,0.945867235961571,0.00522296875715256,-0.000299949198961258,0.0200654268264771,A
1526528209.00183,0.0415386863535239,-0.00308170525830589,0.944836476979719,0.0115282647311687,0.00163326598703861,0.0169854164123535,A
1526528209.0119,0.0412476503998142,-0.00502716915194502,0.94410017235441,0.0259490124881268,0.00667634233832359,0.0237492322921753,A
1526528209.02531,0.0409982406886317,-0.0069946505642669,0.943900842358634,0.0340417139232159,0.00734866876155138,0.0328724384307861,A
1526528209.03151,0.0408906377313384,-0.00921330703284765,0.943997624699291,0.0312050133943558,0.0118744699284434,0.0347356796264648,A
1526528209.04158,0.0408012492100878,-0.0118333331684073,0.944223904596851,0.0383907854557037,-0.00600419845432043,0.0320262312889099,A
1526528209.05183,0.0406749892478073,-0.0146204646799771,0.943978146294459,0.0210471153259277,-0.0139332972466946,0.0302398204803467,A
1526528209.06164,0.0400699216194666,-0.0173980004506871,0.943006295016609,0.0262768194079399,-0.030016141012311,0.0305249691009521,A
1526528209.07164,0.0390202399028124,-0.0202629165414953,0.941521166576775,0.0250388085842133,-0.0374581851065159,0.0222423076629639,A
1526528209.08171,0.0378678181576388,-0.0234433269519502,0.939859724103678,0.0282374508678913,-0.0299414210021496,0.00898778438568115,A
1526528209.09167,0.0371875309190686,-0.0269291830230419,0.938272406934588,0.0476581268012524,-0.0345705822110176,0.00736916065216064,A
1526528209.10193,0.0370066669007772,-0.0306156768315778,0.936811707284989,0.0568606704473495,-0.0369738079607487,0.00791072845458984,A
1526528209.11168,0.036868046764818,-0.0340915265065882,0.935493417402131,0.0475733429193497,-0.0372892692685127,0.0119691491127014,A
1526528209.1218,0.0362771653406917,-0.0370998557970911,0.934105636661811,0.0389358028769493,-0.0477572381496429,0.0171022415161133,A
1526528209.13184,0.0349667436550288,-0.0397192674379681,0.932588605952706,0.0373183190822601,-0.0476281382143497,0.0103650093078613,A
1526528209.14191,0.0333029939674023,-0.0422443735440933,0.93103945542783,0.0419739559292793,-0.0439255349338055,-0.0019649863243103,A
1526528209.15198,0.0319183094999027,-0.0449912905276772,0.929540002386656,0.0465343222022057,-0.0423973798751831,-0.0197397470474243,A
1526528209.16208,0.0312040364516596,-0.0478940120196654,0.928237659750587,0.056620616465807,-0.0480893291532993,-0.0332643985748291,A
1526528209.17199,0.0308960422988044,-0.050697862231666,0.927702369073009,0.0553454644978046,-0.029725831001997,-0.0290289521217346,A
1526528209.18218,0.0301797586971537,-0.0535089218782796,0.927336179882261,0.0652049258351326,-0.0338911041617393,-0.0221649408340454,A
1526528209.19241,0.0300539651978796,-0.0561054654793866,0.926263442748962,0.0872005969285965,-0.0584564097225666,-0.0273539423942566,A
1526528209.20225,0.0302962194348126,-0.0589442915454782,0.924850767114423,0.0909615829586983,-0.044978890568018,-0.0425695776939392,A
1526528209.21242,0.0311202821141729,-0.061937101343457,0.923586838495756,0.0687826573848724,-0.0621416494250298,-0.0712484121322632,A
1526528209.2224,0.0323102990462535,-0.0645935717585294,0.922446418784914,0.0744216293096542,-0.0742990300059319,-0.0606049299240112,A
1526528209.23256,0.0337073919545808,-0.0668976939753412,0.921582963354797,0.0788316503167152,-0.0971975326538086,-0.0510518550872803,A
1526528209.24241,0.0347419845857509,-0.0687977326701245,0.921055540757432,0.0742949247360229,-0.100741155445576,-0.0444715619087219,A
1526528209.2542,0.0353805775211124,-0.0702277640157872,0.920733809948007,0.0817336514592171,-0.113260872662067,-0.0259011387825012,A
1526528209.26257,0.0354339404195646,-0.0712136733214113,0.920554636983673,0.0808131694793701,-0.115175105631351,-0.0166800618171692,A
1526528209.2726,0.0348484908669148,-0.071752671950955,0.920360814502361,0.0796280950307846,-0.118779741227627,-0.0112200975418091,A
1526528209.28326,0.0342035965449971,-0.0718245183718693,0.919702656120804,0.0802100896835327,-0.128220289945602,-0.0158569812774658,A
1526528209.2928,0.0338726405334706,-0.0715268690788564,0.91838740001167,0.0764194056391716,-0.139199659228325,-0.0277568101882935,A
1526528209.3035,0.0339679545728074,-0.0708926013111204,0.916677549120548,0.0785048604011536,-0.14602854847908,-0.0271655917167664,A
1526528209.31281,0.0347571968871311,-0.0703136840034424,0.915156666514409,0.0720556378364563,-0.138081073760986,-0.0244967937469482,A
1526528209.32307,0.0359023892843841,-0.0700869754880778,0.914259001821819,0.0627194494009018,-0.138297438621521,-0.0262760519981384,A
1526528209.33303,0.0371647955611562,-0.0699299551072084,0.913973977488227,0.0635662823915482,-0.138079762458801,-0.0123645067214966,A
1526528209.34308,0.0381303527200239,-0.0698058082809338,0.914336285732483,0.0649227797985077,-0.135300889611244,0.00477403402328491,A
1526528209.35381,0.0384542541290053,-0.0695534194838709,0.915167241434043,0.0587703697383404,-0.134499788284302,0.00987565517425537,A
1526528209.36318,0.0379355333634249,-0.0687551427273932,0.915950026476079,0.0610859021544456,-0.133291438221931,0.0109423398971558,A
1526528209.37331,0.0369086550399476,-0.0671895595836615,0.916094988212211,0.0698876976966858,-0.141647681593895,0.00570058822631836,A
1526528209.38364,0.0360407203105195,-0.0650269490699356,0.915126677624531,0.0722127929329872,-0.14516606926918,-0.0107724070549011,A
1526528209.3935,0.0357947613618091,-0.0627334613853469,0.913345534083245,0.0854380577802658,-0.135018974542618,-0.0158357620239258,A
1526528209.40344,0.0357750427811944,-0.0608863455125151,0.911705499254874,0.0941969379782677,-0.107784770429134,-0.0186354517936707,A
1526528209.41345,0.0357951868240815,-0.0594077644202587,0.911136068402103,0.101375810801983,-0.0760659426450729,-0.0170825123786926,A
1526528209.42363,0.0357145086108635,-0.057619996467221,0.912080283394162,0.111263960599899,-0.0593428798019886,-0.0180890560150146,A
1526528209.43378,0.0356212320298529,-0.0551122606784755,0.91443025681596,0.12806037068367,-0.0626984983682632,-0.0122988224029541,A
1526528209.44367,0.035405233344591,-0.0519374815623226,0.917767719422228,0.124272093176842,-0.0659522265195847,-0.0146390795707703,A
1526528209.45399,0.0354532127635001,-0.0481824668528387,0.921390103777045,0.116069346666336,-0.0844644904136658,-0.00836473703384399,A
1526528209.46388,0.0356995007142233,-0.0443549230170611,0.92438447701812,0.109133839607239,-0.100263841450214,-0.00532793998718262,A
1526528209.47383,0.0361878616346333,-0.040638130516695,0.926696258308694,0.119260668754578,-0.108772695064545,0.000152885913848877,A
1526528209.48415,0.0366372140059191,-0.0371654194259805,0.929041634722169,0.127168864011765,-0.1026781052351,0.0160186290740967,A
1526528209.49409,0.036875658685092,-0.0339442283646148,0.932010256784052,0.13963708281517,-0.0895712524652481,0.0186114311218262,A
1526528209.50408,0.036879435182795,-0.0306253498404136,0.935763303814622,0.145595550537109,-0.0809745639562607,0.0195423364639282,A
1526528209.51408,0.0366129669785609,-0.0270228779742294,0.940247286881056,0.157912358641624,-0.079082578420639,0.0204645991325378,A
1526528209.5243,0.0361894651741893,-0.0234193897371396,0.945580207399721,0.162863999605179,-0.0742900520563126,0.0260334610939026,A
1526528209.53425,0.0356313064186965,-0.0199435074568487,0.951402839566753,0.153454974293709,-0.0724629387259483,0.0186977982521057,A
1526528209.54433,0.0350133926462556,-0.0162687057485639,0.956976384350841,0.14505210518837,-0.0773031413555145,0.00403082370758057,A
1526528209.55446,0.0343186485725964,-0.0121869585403266,0.962081101535108,0.152442961931229,-0.0793405920267105,-0.00250935554504395,A
1526528209.56443,0.0335274076047257,-0.00776889173719335,0.966950954930309,0.142840966582298,-0.0675222277641296,-0.0133180022239685,A
1526528209.57451,0.0329374725341011,-0.00326382154249172,0.971905885771536,0.146191582083702,-0.0576919168233871,-0.0186293721199036,A
1526528209.58491,0.0327927681937151,0.0010406380097833,0.97742368942889,0.148548573255539,-0.0449493527412415,-0.020954430103302,A
1526528209.59453,0.0332741199119044,0.0049543463146775,0.983753220627456,0.146252080798149,-0.0347948186099529,-0.0204327702522278,A
1526528209.60458,0.0343065486197435,0.00865253229452002,0.991042045702667,0.15016496181488,-0.0373528227210045,-0.0097506046295166,A
1526528209.61475,0.0354953045832436,0.0123614626374481,0.999188835854109,0.148276448249817,-0.0328353866934776,0.0095629096031189,A
1526528209.62499,0.0363219586036073,0.0161649419140501,1.00796950944637,0.141013160347939,-0.0275979693979025,0.0227999687194824,A
1526528209.63482,0.0364883018849039,0.0202795295222967,1.01677769256767,0.128718942403793,-0.0287788677960634,0.0202317833900452,A
1526528209.64493,0.035630215859315,0.024860154859956,1.02506913618528,0.124849751591682,-0.0211171377450228,0.00630444288253784,A
1526528209.65506,0.0343721285074241,0.0299555754908698,1.03308413470505,0.126065701246262,-0.0133075714111328,-0.00984334945678711,A
1526528209.665,0.0333317959670085,0.0351907820335162,1.04113063035886,0.120381534099579,-0.00119343400001526,-0.0271751880645752,A
1526528209.67518,0.0330353726889302,0.040260324794854,1.04942073755091,0.117952600121498,0.0129209570586681,-0.0380681753158569,A
1526528209.68552,0.0339007784128881,0.0451151252922223,1.05822182590335,0.118422918021679,0.0168100297451019,-0.0296218991279602,A
1526528209.69558,0.035777796395539,0.0497725360238459,1.06783812023954,0.110727995634079,0.022988073527813,-0.0039680004119873,A
1526528209.70548,0.0382078423266573,0.0541415483646982,1.07814026778367,0.100727662444115,0.0219953507184982,0.0313600301742554,A
1526528209.7156,0.0409416805048051,0.0581664115382832,1.08867326038708,0.0835591405630112,0.0142340809106827,0.0639700293540955,A
1526528209.72581,0.0436890579198591,0.0618412978193113,1.09865476048455,0.064745731651783,0.00423047691583633,0.0850114226341248,A
1526528209.73572,0.0459161453613162,0.0652277553796961,1.10759728704937,0.0572249442338943,-0.00606177747249603,0.0980790257453918,A
1526528209.74576,0.0472381268522305,0.0684108393221421,1.11511929236741,0.0430388227105141,-0.00486943870782852,0.0993312001228333,A
1526528209.75576,0.0479002793116627,0.0713182846249313,1.12128696325165,0.0457303561270237,0.0142815262079239,0.0712040066719055,A
1526528209.76612,0.048632523577618,0.0739051146438583,1.12699370523143,0.0500606074929237,0.039093591272831,0.0359471440315247,A
1526528209.77597,0.0499376262575307,0.076119339750768,1.13319357368962,0.0445269830524921,0.0628164857625961,0.0128443241119385,A
1526528209.78841,0.0523866617749342,0.078258534269722,1.1406714326813,0.0378396771848202,0.0739519894123077,0.00407081842422485,A
1526528209.79613,0.0561718299755635,0.0804649069240209,1.14922526292239,0.0147943645715714,0.0671029537916183,0.0207813382148743,A
1526528209.80621,0.0608423100183016,0.0824231551673698,1.15798611290908,-0.000265099108219147,0.0445033237338066,0.0525766611099243,A
1526528209.81697,0.0654567138329,0.0839799982570897,1.16630933309888,-0.0251861810684204,0.0238990187644958,0.0890073180198669,A
1526528209.82632,0.0690104975764689,0.0853612918117465,1.17356309158003,-0.0557346940040588,0.0164405256509781,0.111815690994263,A
1526528209.83644,0.0710621244167139,0.0866539418334274,1.17929685697673,-0.0655631870031357,0.00913769751787186,0.123189091682434,A
1526528209.84629,0.0717641373031705,0.0877342866672328,1.18357135377325,-0.0743259415030479,0.0247708261013031,0.0997298955917358,A
1526528209.85656,0.0714822798869103,0.0886611424688757,1.18699030359123,-0.0707441568374634,0.0547925904393196,0.0648022294044495,A
1526528209.8665,0.0708363158570203,0.0896164095638156,1.19038444240594,-0.059445708990097,0.0869330316781998,0.0355120897293091,A
1526528209.87652,0.0701600561460983,0.0904171126537211,1.19444723607417,-0.0555034056305885,0.12337502092123,0.00725895166397095,A
1526528209.88763,0.0698070337841353,0.0912788441210309,1.19943276581178,-0.0476399064064026,0.146099045872688,-0.0191158652305603,A
1526528209.89641,0.0702976911203815,0.0924405456923306,1.2052072376464,-0.0495389103889465,0.148476541042328,-0.0253598690032959,A
1526528209.90671,0.0714634809785262,0.0938171310507058,1.21121630010604,-0.0648173093795776,0.135061413049698,-0.0201071500778198,A
1526528209.91701,0.0730757232996622,0.0952526268598359,1.21652370835412,-0.0943319648504257,0.11938538402319,-0.00770866870880127,A
1526528209.92697,0.0748332675528343,0.0964352873748276,1.22068417702808,-0.105727106332779,0.103442259132862,0.0150289535522461,A
1526528209.93781,0.0763377125156271,0.0971749641777963,1.22413356965439,-0.127814203500748,0.108298346400261,0.0314309000968933,A
1526528209.94688,0.0774595068088107,0.0974490870520386,1.2270683402751,-0.137973800301552,0.120640873908997,0.0439223051071167,A
1526528209.95706,0.0786689309898284,0.0971927632737103,1.22977030896043,-0.133209586143494,0.125680565834045,0.0432429313659668,A
1526528209.96709,0.0800533885496025,0.096412548673593,1.23256512897121,-0.134100928902626,0.134806960821152,0.036159336566925,A
1526528209.97722,0.0813379013861235,0.0953787922840025,1.235957393297,-0.131431341171265,0.154011100530624,0.0388099551200867,A
1526528209.98905,0.0823383788376045,0.0944755648537517,1.2399889711788,-0.134719789028168,0.151845455169678,0.0464279651641846,A
1526528209.99733,0.0832790658982593,0.0940162468319328,1.24385105119556,-0.145590126514435,0.141485214233398,0.0460731387138367,A
1526528210.00727,0.0841314397136245,0.094231522090466,1.24670360028769,-0.15876317024231,0.116720914840698,0.0594555735588074,A
1526528210.01924,0.08423880023785,0.0948193817358134,1.24852241734038,-0.175329238176346,0.102535642683506,0.0787546634674072,A
1526528210.02752,0.0832270004672029,0.0953419284540672,1.24954404709895,-0.196019396185875,0.101941928267479,0.0986411571502686,A
1526528210.03726,0.0814888631871742,0.095338082830073,1.24982771926692,-0.217320561408997,0.112085200846195,0.100904822349548,A
1526528210.0473,0.0796945830414618,0.094565719490313,1.24951319805542,-0.223846837878227,0.110568642616272,0.0896622538566589,A
1526528210.05761,0.0780503093050364,0.0928611183790594,1.24877823776192,-0.225172385573387,0.119949392974377,0.0741116404533386,A
1526528210.0675,0.0765392833688855,0.0904322485348924,1.24773821052886,-0.220530778169632,0.12993611395359,0.057588517665863,A
1526528210.07748,0.0750983954773888,0.087905488823653,1.24626419147504,-0.217148408293724,0.132180139422417,0.0419151186943054,A
1526528210.08759,0.0736199342474658,0.0859630869593857,1.24415173891201,-0.213784784078598,0.126766055822372,0.0312368869781494,A
1526528210.09771,0.0721118137013153,0.084844764316658,1.24139326322154,-0.210889279842377,0.119243130087852,0.0259788036346436,A
1526528210.10755,0.0703035508267719,0.084112001173133,1.2382284869026,-0.217458248138428,0.12452494353056,0.0234678387641907,A
1526528210.11789,0.068222981065294,0.0832236158780429,1.23486931896111,-0.219102948904037,0.126493066549301,0.0311011672019958,A
1526528210.12787,0.0661171747200262,0.0819581678873376,1.23126657507209,-0.218587726354599,0.121279895305634,0.0367172956466675,A
1526528210.13783,0.0641917178446034,0.0802034225578686,1.22733342285743,-0.212516263127327,0.115166902542114,0.0416226983070374,A
1526528210.14818,0.062372014815265,0.0779078978475248,1.22308499957119,-0.208413273096085,0.110742315649986,0.0432153344154358,A
1526528210.15811,0.060538757396698,0.0751255933142031,1.21842753385885,-0.201612263917923,0.110134907066822,0.0390843152999878,A
1526528210.16805,0.0587147737698736,0.0721172238582739,1.21328159165328,-0.183116525411606,0.098803386092186,0.0389863848686218,A
1526528210.17808,0.0566881061938537,0.069170743164543,1.20751048280624,-0.1694525629282,0.0851678401231766,0.0361977815628052,A
1526528210.18829,0.0541662898251071,0.0664681326129565,1.20118666505357,-0.152729362249374,0.077085092663765,0.0321713089942932,A
1526528210.19832,0.0512408499227473,0.0641460281545759,1.19447658811839,-0.147899597883224,0.0755308791995049,0.0249996185302734,A
1526528210.20832,0.0480946722004439,0.0620484790804274,1.18738844442179,-0.141214817762375,0.0801361128687859,0.0150184035301208,A
1526528210.21857,0.0451176237040978,0.0598905873435099,1.18017404274687,-0.126671224832535,0.0816748589277267,0.00553786754608154,A
1526528210.22854,0.0425401054270931,0.0575256648172003,1.172828180241,-0.124183006584644,0.0782916694879532,-0.00567013025283813,A
1526528210.23843,0.0404383804501985,0.055054994517435,1.16504262917763,-0.115286760032177,0.07489413022995,-0.0143553614616394,A
1526528210.24852,0.0385805315740622,0.0526632186648898,1.156939315557,-0.106647983193398,0.0680349916219711,-0.0162438750267029,A
1526528210.2587,0.0365925119882889,0.0504803616951625,1.14872417984674,-0.0992208495736122,0.0665874630212784,-0.0126236081123352,A
1526528210.26862,0.0344946643693852,0.0484092230649546,1.14050921467787,-0.093178503215313,0.0680436342954636,-0.0033373236656189,A
1526528210.27871,0.0321679781928161,0.0463296734027269,1.13227479411127,-0.0922322869300842,0.0685756728053093,-0.00171190500259399,A
1526528210.2888,0.0299892955811156,0.0443525798831608,1.12393076634503,-0.0812553614377975,0.057018093764782,0.00294667482376099,A
1526528210.29885,0.0280741333705099,0.0422970529578061,1.11533213682965,-0.0701901167631149,0.0486931353807449,0.012383759021759,A
1526528210.30895,0.0263884655288411,0.0400697075803337,1.10657201438408,-0.0624817758798599,0.0391587167978287,0.0226226449012756,A
1526528210.31924,0.0248240195088216,0.0377139937012948,1.09767120992396,-0.0518881715834141,0.0303350612521172,0.0406985878944397,A
1526528210.32925,0.0231155693411567,0.0353097723622672,1.08859610440218,-0.0355044975876808,0.0184109546244144,0.0608009696006775,A
1526528210.3391,0.0209880250639565,0.0329298941032891,1.07933540306241,-0.0238742772489786,0.00945592671632767,0.08110111951828,A
1526528210.34911,0.0182777318904992,0.0305697854440687,1.06987530920049,-0.0141635611653328,0.0103318691253662,0.0916509628295898,A
1526528210.3593,0.0146977038584334,0.0281866861412296,1.06005364543252,-0.00448320619761944,0.00923153758049011,0.0883009433746338,A
1526528210.3693,0.0102259391350384,0.0259167668654972,1.05001088410447,0.00514327362179756,0.0150496084243059,0.0779352784156799,A
1526528210.3794,0.00518823517617594,0.0237980367830507,1.0401196404124,0.00628786720335484,0.030646987259388,0.0559167861938477,A
1526528210.38942,-0.000324369734514173,0.0217323710482131,1.03062364849018,0.0170021504163742,0.0397360324859619,0.0305865406990051,A
1526528210.39962,-0.00573437251503352,0.0196678170098147,1.02189475728589,0.0334584526717663,0.0406931601464748,0.0111579298973083,A
1526528210.40945,-0.0102779308245683,0.0173465962904792,1.01378717058401,0.0312570370733738,0.0304530244320631,-0.00626099109649658,A
1526528210.42042,-0.0134248061242483,0.0144739574745822,1.00577962141114,0.0426893532276154,0.0135731836780906,-0.0191615223884583,A
1526528210.4298,-0.0154187057055531,0.0112035941938125,0.997133818789035,0.0715542137622833,0.00934178754687309,-0.0262436270713806,A
1526528210.43966,-0.0171177019787796,0.00840662100253496,0.988145311171788,0.0846821814775467,-0.00959884934127331,-0.0103136897087097,A
1526528210.45021,-0.0196579478391576,0.00612998562060648,0.979019505495182,0.0966826826334,-0.00732830446213484,-0.00237876176834106,A
1526528210.46018,-0.023388503860899,0.00410544538126525,0.96993330843144,0.10134332627058,0.00140462815761566,-0.0036998987197876,A
1526528210.47014,-0.0280262023003402,0.00221399118307021,0.960674814588698,0.115760505199432,0.0152297364547849,-0.0166915655136108,A
1526528210.47992,-0.0333266873425268,0.000853223739861047,0.951433062511101,0.126963704824448,0.0189501475542784,-0.0336214303970337,A
1526528210.49007,-0.0386987260759075,9.94283621091443e-05,0.942398571566113,0.143684804439545,0.0244829729199409,-0.0504007935523987,A
1526528210.50004,-0.043464635975483,-0.000402148822593319,0.933911005544822,0.166757225990295,0.0246680416166782,-0.0596145391464233,A
1526528210.51031,-0.0473731395087855,-0.000964511259317924,0.925983930846895,0.183631643652916,0.0265318267047405,-0.0652245283126831,A
1526528210.52175,-0.0503623173780397,-0.00177829838831547,0.918406226984997,0.213426887989044,0.0245888903737068,-0.0617706179618835,A
1526528210.5304,-0.0521986442280525,-0.00288023944652835,0.910982586608104,0.239400073885918,0.0127752814441919,-0.0626760125160217,A
1526528210.54036,-0.0528545349532642,-0.00425350353693009,0.903611039972829,0.267657935619354,0.00899113900959492,-0.0585344433784485,A
1526528210.55053,-0.0530690377807866,-0.0057613633737238,0.896520233957853,0.300922274589539,0.0125797335058451,-0.0539451837539673,A
1526528210.56055,-0.0537023034669725,-0.00677199971025562,0.890185297746369,0.326670259237289,0.0240355469286442,-0.0418698191642761,A
1526528210.57116,-0.0553051844334268,-0.00687511190901112,0.884784820272222,0.347038984298706,0.0387182049453259,-0.0286673903465271,A
1526528210.5806,-0.0573696757645939,-0.00611162852738684,0.880351650034471,0.361185401678085,0.0459056198596954,-0.0350652933120728,A
1526528210.59071,-0.0591559442577401,-0.00477442675639028,0.876701199764652,0.369743943214417,0.0477616041898727,-0.054449200630188,A
1526528210.60063,-0.0594031061306318,-0.00300726466942616,0.873640015466888,0.370372533798218,0.0474230349063873,-0.0834028720855713,A
1526528210.61074,-0.0570392322152749,-0.000623016568916684,0.871172193885662,0.360246211290359,0.0411860644817352,-0.109612941741943,A
1526528210.62155,-0.0521550468947865,0.00255410055411026,0.869210569079966,0.350165903568268,0.045416034758091,-0.113957643508911,A
1526528210.6309,-0.0456446089860396,0.00653106579454932,0.86771354128204,0.3493692278862,0.0436251387000084,-0.09957355260849,A
1526528210.64095,-0.0389259084538053,0.0108752195542283,0.866327223713073,0.343723356723785,0.0418045707046986,-0.0663988590240479,A
1526528210.65106,-0.0337398357614017,0.0150841341622909,0.864751161344714,0.325645506381989,0.0523760430514812,-0.0331535339355469,A
